timestamp_ms,acc_x,acc_y,acc_z,gyro_x,gyro_y,gyro_z,temp,button
19114,0.8040,0.0146,0.6150,1.6489,3.4809,-5.6489,45.18,0
19124,0.7795,0.0220,0.6138,1.6947,2.2137,-2.8092,45.14,0
19134,0.7637,0.0068,0.6208,1.0382,0.9008,-0.5191,45.16,0
19144,0.7363,0.0171,0.6174,-1.1603,1.1450,-1.0840,45.19,0
19154,0.7305,0.0134,0.5969,-4.7481,0.5496,-4.3053,45.19,0
19164,0.7285,0.0034,0.5767,-7.8015,-1.9389,-8.5191,45.17,0
19174,0.7197,0.0083,0.5613,-7.9542,-7.6947,-10.8550,45.14,0
19184,0.7964,0.0051,0.5515,-6.0763,-15.7710,-11.2977,45.18,0
19194,0.8064,0.0193,0.5747,-1.4962,-19.1298,-12.3511,45.18,0
19204,0.8606,0.0293,0.6021,3.6031,-19.7710,-12.9466,45.18,0
19214,0.8691,0.0369,0.6152,6.0305,-17.4962,-12.9771,45.17,0
19224,0.8796,0.0303,0.6538,4.3664,-14.6107,-10.4427,45.16,0
19234,0.8745,0.0413,0.6521,-0.2137,-9.4351,-6.0763,45.17,0
19244,0.8481,0.0400,0.6528,-7.9237,-5.3588,-2.2748,45.18,0
19254,0.8352,0.0305,0.6235,-17.1145,-4.8397,0.1374,45.18,0
19264,0.8398,0.0037,0.6086,-23.1298,-7.4809,1.2977,45.14,0
19274,0.8406,-0.0195,0.5852,-24.6107,-10.4733,3.0534,45.17,0
19284,0.8633,-0.0498,0.5737,-21.4809,-11.8321,5.3893,45.19,0
19294,0.8635,-0.0569,0.5745,-14.8550,-8.5802,6.1374,45.17,0
19304,0.8347,-0.0461,0.5852,-6.7939,-2.7481,4.0153,45.20,0
19314,0.8208,-0.0393,0.5752,0.2595,0.2137,0.0458,45.20,0
19324,0.8137,-0.0383,0.6094,2.6260,1.3893,-2.5496,45.17,0
19334,0.7974,-0.0229,0.6125,2.2443,4.6718,-5.2977,45.18,0
19344,0.8223,-0.0300,0.5994,0.6565,7.5878,-8.9313,45.18,0
19354,0.8237,-0.0227,0.6116,-0.2443,12.5038,-10.4275,45.19,0
19364,0.8232,-0.0195,0.5952,-0.1679,16.2443,-9.2672,45.17,0
19374,0.8228,-0.0220,0.5806,-0.1985,14.9771,-7.1603,45.17,0
19384,0.8213,-0.0161,0.5854,-0.6565,12.0763,-3.8931,45.17,0
19394,0.8279,-0.0244,0.5840,-1.5725,8.7634,-0.6260,45.17,0
19404,0.8347,-0.0254,0.5835,-2.1527,5.4198,2.2595,45.17,0
19414,0.8330,-0.0144,0.5957,-2.2748,5.0382,4.1679,45.15,0
19424,0.8271,-0.0212,0.5923,-2.6107,6.3053,4.9160,45.18,0
19434,0.8203,-0.0212,0.5947,-2.9466,8.9771,3.9389,45.14,0
19444,0.8115,-0.0249,0.5720,-3.1145,11.6183,1.9084,45.19,0
19454,0.7937,-0.0261,0.5615,-2.0305,12.8092,-0.1985,45.16,0
19464,0.7830,-0.0173,0.5605,0.7634,12.0305,-1.0840,45.18,0
19474,0.7756,-0.0110,0.5662,3.0840,10.0763,-1.3588,45.17,0
19484,0.7642,-0.0127,0.5867,3.9084,7.2977,-1.9695,45.17,0
19494,0.7561,-0.0186,0.5898,2.9160,3.3130,-2.1679,45.20,0
19504,0.7607,-0.0122,0.5850,1.8931,0.0916,-1.7405,45.15,0
19514,0.7754,-0.0156,0.5750,0.8397,-1.2977,-1.1756,45.19,0
19524,0.7893,-0.0259,0.5657,1.2672,-1.7252,-1.0229,45.17,0
19534,0.7913,-0.0178,0.5791,3.3282,0.2595,-0.2901,45.17,0
19544,0.8057,-0.0215,0.5830,5.9389,3.2824,0.1679,45.16,0
19554,0.7910,-0.0115,0.5845,8.5191,8.9618,-0.3359,45.16,0
19564,0.7761,-0.0161,0.5828,11.0534,13.6031,-1.5573,45.17,0
19574,0.7620,-0.0164,0.5657,12.9618,14.0000,-2.5344,45.19,0
19584,0.7546,-0.0059,0.5732,13.5725,8.4580,-2.2748,45.20,0
19594,0.7710,-0.0015,0.5854,12.9771,2.4275,-0.6565,45.17,0
19604,0.7947,0.0044,0.5879,10.7023,-1.6336,0.3664,45.17,0
19614,0.7900,0.0046,0.6084,7.7405,-2.3969,0.2137,45.21,0
19624,0.8069,-0.0037,0.6099,5.2519,-1.2824,-0.1527,45.19,0
19634,0.8162,0.0081,0.6213,3.8321,1.8473,-0.3511,45.19,0
19644,0.8298,0.0017,0.6213,3.8473,7.2672,-1.6031,45.23,0
19654,0.8308,-0.0081,0.6111,4.9160,10.4885,-4.1985,45.14,0
19664,0.8303,-0.0137,0.6128,6.8244,11.1603,-6.5649,45.19,0
19674,0.8250,-0.0181,0.6177,9.3282,11.1603,-6.9313,45.17,0
19684,0.7939,-0.0049,0.6321,10.9771,11.9084,-6.4885,45.17,0
19694,0.7766,-0.0032,0.6396,9.0992,10.0611,-6.3664,45.17,0
19704,0.7830,-0.0117,0.6377,5.1756,6.9924,-5.0687,45.18,0
19714,0.7964,-0.0146,0.6311,1.3282,3.1756,-1.5725,45.15,0
19724,0.7966,-0.0308,0.6079,0.3664,3.9389,2.9924,45.17,0
19734,0.8003,-0.0234,0.6150,2.7023,6.2137,5.7710,45.18,0
19744,0.7810,-0.0122,0.6182,7.0076,10.9771,6.1832,45.17,0
19754,0.7754,-0.0059,0.6348,10.4580,15.4504,4.0916,45.17,0
19764,0.7722,-0.0020,0.6350,13.0840,17.7863,-0.2901,45.17,0
19774,0.7773,0.0112,0.6289,15.6489,16.9160,-4.2595,45.19,0
19784,0.7893,0.0220,0.6318,17.4962,11.8626,-5.9237,45.19,0
19794,0.7742,0.0342,0.6401,17.9084,6.2290,-5.3282,45.16,0
19804,0.7986,0.0176,0.6658,14.5954,1.0687,-4.2443,45.17,0
19814,0.8105,0.0173,0.6719,9.9847,-0.3206,-4.0611,45.16,0
19824,0.8066,0.0283,0.6667,7.5267,2.7634,-3.4046,45.15,0
19834,0.8081,0.0303,0.6614,5.7099,4.7023,-3.1450,45.17,0
19844,0.7961,0.0222,0.6631,3.0534,4.3817,-2.4427,45.19,0
19854,0.7930,0.0164,0.6550,0.3817,2.7023,-0.8702,45.17,0
19864,0.7959,0.0044,0.6438,-1.3130,0.9160,0.7023,45.16,0
19874,0.7944,-0.0029,0.6326,-2.1527,-0.3511,1.9695,45.17,0
19884,0.8025,-0.0139,0.6235,-0.0305,0.2595,2.5802,45.19,0
19894,0.8091,-0.0220,0.6169,3.5878,2.8397,1.7405,45.17,0
19904,0.7957,-0.0103,0.6313,8.3511,6.9160,-0.3969,45.17,0
19914,0.7766,0.0056,0.6372,12.2595,10.3206,-2.7328,45.15,0
19924,0.7810,0.0120,0.6436,13.6183,10.7481,-4.3053,45.18,0
19934,0.7798,0.0352,0.6509,12.2443,9.0992,-3.2977,45.16,0
19944,0.7683,0.0408,0.6602,8.7023,7.9237,-1.1145,45.17,0
19954,0.7795,0.0403,0.6572,4.6718,5.9237,-0.4733,45.18,0
19964,0.7939,0.0220,0.6465,1.8321,4.9924,0.0000,45.17,0
19974,0.7983,0.0178,0.6333,2.0153,4.8702,0.3206,45.15,0
19984,0.7888,0.0178,0.6543,3.8321,6.5649,0.6565,45.17,0
19994,0.7856,0.0132,0.6504,5.1908,10.0611,0.1374,45.20,0
20004,0.7759,0.0159,0.6597,4.6412,14.4122,-2.3817,45.16,0
20014,0.7812,0.0107,0.6423,3.0076,14.5344,-4.9313,45.15,0
20024,0.7825,0.0129,0.6370,1.9542,11.9237,-4.7939,45.17,0
20034,0.8020,0.0186,0.6482,2.7328,8.6260,-2.9160,45.17,0
20044,0.8098,0.0188,0.6721,4.4580,7.0840,-1.7099,45.17,0
20054,0.8169,0.0276,0.6907,6.5802,10.2748,-2.0916,45.14,0
20064,0.8279,0.0225,0.7017,9.3893,14.9466,-3.7557,45.17,0
20074,0.8364,0.0090,0.7146,11.5878,18.1832,-5.4351,45.16,0
20084,0.8345,0.0193,0.7363,12.2748,20.1069,-6.0153,45.17,0
20094,0.8486,0.0305,0.7527,11.1908,22.6412,-6.2901,45.18,0
20104,0.8386,0.0349,0.7676,7.6031,25.5573,-7.0229,45.17,0
20114,0.8215,0.0276,0.7722,3.6183,27.6641,-6.9008,45.17,0
20124,0.8064,0.0251,0.7725,-0.1679,28.1069,-4.9466,45.19,0
20134,0.8167,0.0300,0.7681,-1.9847,26.7939,-2.4427,45.17,0
20144,0.8254,0.0300,0.7747,-1.7252,26.6107,-0.6718,45.17,0
20154,0.8530,0.0320,0.8069,0.1221,28.9924,-2.0153,45.17,0
20164,0.8687,0.0454,0.8169,3.2672,34.7481,-6.2901,45.19,0
20174,0.8643,0.0242,0.8450,6.0000,40.7939,-11.5115,45.18,0
20184,0.8687,0.0205,0.8586,7.3435,46.7176,-13.5878,45.15,0
20194,0.8826,0.0464,0.8787,6.5954,50.7786,-12.5344,45.18,0
20204,0.9011,0.0583,0.9146,3.2214,54.1069,-10.0916,45.14,0
20214,0.9446,0.0872,0.9512,-0.8855,58.1985,-8.9160,45.17,0
20224,0.9873,0.1157,0.9910,-4.0000,66.1221,-10.2595,45.12,0
20234,1.0269,0.1125,1.0408,-6.7481,77.0382,-12.5802,45.14,0
20244,1.0325,0.1096,1.0598,-9.1908,90.7023,-14.9618,45.19,0
20254,1.0120,0.0876,1.0708,-13.4962,106.9313,-15.6794,45.18,0
20264,0.9658,0.0859,1.0537,-20.1221,121.5878,-12.7786,45.19,0
20274,0.9192,0.0950,1.0415,-28.2595,131.2824,-6.0611,45.16,0
20284,0.8760,0.1011,1.0276,-37.6641,136.5343,1.2366,45.16,0
20294,0.8567,0.1113,1.0222,-43.1298,141.2824,2.4580,45.17,0
20304,0.8345,0.1260,1.0085,-43.5115,150.1985,-2.7176,45.15,0
20314,0.8074,0.1301,1.0024,-39.7863,160.0458,-9.4046,45.19,0
20324,0.7983,0.1829,1.0063,-34.5496,170.1069,-15.2061,45.17,0
20334,0.7607,0.1775,1.0188,-30.6718,179.9847,-21.7099,45.14,0
20344,0.7266,0.1865,1.0295,-30.0763,189.5878,-28.9466,45.12,0
20354,0.6873,0.1494,1.0261,-33.8473,196.5496,-32.7786,45.14,0
20364,0.6501,0.0730,1.0198,-43.5420,200.5649,-30.8702,45.17,0
20374,0.6191,0.0813,0.9680,-53.3282,200.1527,-26.7023,45.18,0
20384,0.5791,0.0745,0.9585,-60.6565,198.9771,-20.8702,45.16,0
20394,0.5457,0.0752,0.9531,-65.6183,197.0840,-15.4962,45.14,0
20404,0.5242,0.0708,0.9487,-67.1908,193.4809,-14.8702,45.17,0
20414,0.5310,0.0791,0.9792,-63.2366,196.0763,-19.7557,45.17,0
20424,0.5342,0.0471,0.9968,-54.7786,204.0000,-28.9771,45.16,0
20434,0.5242,0.0398,0.9971,-43.9847,208.7023,-37.7710,45.17,0
20444,0.4690,0.0952,0.9883,-33.2977,215.3740,-39.3435,45.12,0
20454,0.3838,0.0986,0.9763,-31.4656,220.9771,-38.0305,45.14,0
20464,0.2937,0.0815,0.9695,-40.4580,226.5343,-39.6183,45.17,0
20474,0.2451,0.1218,0.9087,-55.8931,226.3359,-42.4122,45.17,0
20484,0.2290,0.0757,0.8962,-72.7176,217.4504,-40.1832,45.12,0
20494,0.2395,0.0676,0.8677,-84.9160,201.4962,-30.8397,45.18,0
20504,0.2214,0.0330,0.8291,-91.0382,197.9695,-20.6718,45.17,0
20514,0.1326,-0.0483,0.7815,-93.0076,203.0687,-18.3206,45.14,0
20524,0.0503,-0.1006,0.7446,-91.9542,209.4046,-21.0534,45.18,0
20534,0.0051,-0.1453,0.7021,-88.4733,211.1145,-24.4886,45.14,0
20544,0.0051,-0.2021,0.6665,-83.4962,196.9924,-24.7939,45.15,0
20554,0.0293,-0.1516,0.6653,-78.3206,186.5343,-14.5649,45.13,0
20564,-0.0093,-0.1272,0.6389,-75.7863,189.6794,-2.1069,45.15,0
20574,-0.1021,-0.1133,0.6157,-76.1832,196.2595,0.2901,45.17,0
20584,-0.2009,-0.0825,0.5935,-76.8702,203.2977,-5.3893,45.13,0
20594,-0.2449,-0.1335,0.5583,-76.9771,195.3282,-13.5267,45.17,0
20604,-0.2051,-0.1819,0.5566,-77.4351,183.8168,-17.0687,45.14,0
20614,-0.1484,-0.2483,0.5481,-77.6336,179.1908,-16.5038,45.11,0
20624,-0.1692,-0.2825,0.5193,-75.4198,181.1298,-16.2901,45.13,0
20634,-0.2051,-0.3760,0.5139,-69.2519,180.9924,-16.2748,45.12,0
20644,-0.2449,-0.3665,0.4900,-57.0382,175.2061,-13.9084,45.11,0
20654,-0.3015,-0.2957,0.4600,-41.8473,171.1603,-8.7481,45.12,0
20664,-0.3569,-0.2158,0.4460,-30.8244,166.0916,-2.9008,45.11,0
20674,-0.4438,-0.1741,0.4822,-29.4656,161.8931,0.1679,45.13,0
20684,-0.4548,-0.1548,0.4849,-35.4198,153.1908,-1.9695,45.11,0
20694,-0.4080,-0.2002,0.4629,-50.0458,142.0763,-4.3969,45.12,0
20704,-0.3735,-0.2932,0.4058,-74.6565,135.6794,2.8855,45.10,0
20714,-0.4111,-0.3601,0.3025,-100.0763,132.0000,17.8473,45.13,0
20724,-0.4875,-0.3943,0.2036,-114.2290,128.3969,32.8550,45.13,0
20734,-0.5664,-0.4595,0.1423,-118.1985,119.8168,45.6336,45.15,0
20744,-0.6243,-0.4846,0.0930,-113.2061,102.9924,54.7481,45.15,0
20754,-0.6580,-0.4331,0.0994,-98.5343,91.4046,60.1832,45.13,0
20764,-0.6934,-0.3816,0.1125,-78.5191,85.8931,57.6183,45.14,0
20774,-0.7356,-0.3337,0.1279,-57.6947,83.6031,47.6336,45.13,0
20784,-0.7390,-0.3181,0.1104,-45.3130,78.6870,34.6718,45.12,0
20794,-0.7156,-0.3467,0.0989,-48.3206,81.1298,26.7176,45.12,0
20804,-0.7583,-0.3574,0.0195,-62.5954,84.0916,28.3664,45.12,0
20814,-0.8511,-0.3274,-0.0444,-77.9695,82.6260,35.2214,45.11,0
20824,-0.9341,-0.3464,-0.1252,-87.0076,72.4275,41.7252,45.12,0
20834,-0.9680,-0.4172,-0.1362,-87.5573,53.5115,44.8244,45.14,0
20844,-0.9529,-0.5198,-0.1245,-77.7405,35.0687,41.9237,45.09,0
20854,-0.8750,-0.4219,-0.0605,-60.6870,20.4886,36.4275,45.10,0
20864,-0.8535,-0.4529,0.0508,-39.6489,13.0840,26.1221,45.14,0
20874,-0.8237,-0.4092,0.0127,-16.9924,20.7481,16.4886,45.09,0
20884,-0.8191,-0.4302,0.0769,-5.2214,27.5267,8.0153,45.13,0
20894,-0.8582,-0.5327,0.1055,-7.2366,37.6489,1.4046,45.12,0
20904,-0.9243,-0.5447,0.0498,-17.4046,44.0000,-0.7481,45.13,0
20914,-0.9829,-0.4841,0.0007,-27.6031,36.8855,2.3664,45.12,0
20924,-0.9678,-0.4675,-0.0205,-32.6870,17.8321,6.2901,45.14,0
20934,-0.9258,-0.5120,0.0242,-33.6336,-0.2443,11.2824,45.13,0
20944,-0.8621,-0.5667,0.0730,-30.0916,-10.7786,15.0534,45.15,0
20954,-0.8247,-0.5999,0.1375,-21.6641,-10.3664,14.1679,45.14,0
20964,-0.8162,-0.6157,0.1943,-7.9237,-4.3206,8.5802,45.14,0
20974,-0.8091,-0.5920,0.2419,8.7786,-0.1679,0.9313,45.12,0
20984,-0.7927,-0.5615,0.2739,23.1603,1.3282,-5.8931,45.12,0
20994,-0.7764,-0.5034,0.3027,32.3206,2.9160,-8.4275,45.15,0
21004,-0.7856,-0.4463,0.3206,32.9466,4.2901,-5.4504,45.17,0
21014,-0.8105,-0.3958,0.3298,26.5649,3.3282,0.5954,45.14,0
21024,-0.8132,-0.3391,0.3430,14.3969,-2.2748,8.6107,45.14,0
21034,-0.7932,-0.3108,0.3574,-1.7405,-7.9542,16.6565,45.14,0
21044,-0.8237,-0.3689,0.4016,-22.0153,-8.7786,17.7557,45.15,0
21054,-0.7915,-0.3833,0.3755,-38.6260,-4.5344,11.2672,45.12,0
21064,-0.6599,-0.4395,0.2844,-41.5115,2.2443,12.6718,45.11,0
21074,-0.7688,-0.5046,0.2698,-29.8931,10.0458,20.5038,45.14,0
21084,-0.8411,-0.4836,0.2578,-17.6489,10.5038,18.8855,45.14,0
21094,-0.8772,-0.4343,0.2493,-6.8702,6.3969,12.8397,45.13,0
21104,-0.8630,-0.3813,0.2356,-0.4275,-1.1603,6.5191,45.15,0
21114,-0.8362,-0.3757,0.2319,1.2214,-6.3053,2.4733,45.15,0
21124,-0.8188,-0.3892,0.2493,-1.0687,-7.8168,0.3511,45.13,0
21134,-0.8042,-0.3845,0.2229,-4.0000,-5.7557,0.1069,45.13,0
21144,-0.7832,-0.3721,0.1951,-6.3817,-3.2366,0.9160,45.16,0
21154,-0.8003,-0.3181,0.1951,-9.2366,1.5420,1.8168,45.14,0
21164,-0.8491,-0.3564,0.2009,-11.4504,1.2824,-0.2290,45.14,0
21174,-0.8660,-0.4163,0.2063,-11.7405,-6.4885,-4.9313,45.14,0
21184,-0.8352,-0.4521,0.2168,-8.5496,-17.2977,-8.3359,45.13,0
21194,-0.7961,-0.5068,0.2241,-2.3969,-23.5725,-9.5420,45.14,0
21204,-0.7698,-0.5183,0.2444,5.7405,-26.5649,-8.9924,45.15,0
21214,-0.7495,-0.4941,0.2727,13.9695,-25.8015,-7.2519,45.13,0
21224,-0.7476,-0.4766,0.3335,19.6641,-21.7405,-6.8092,45.14,0
21234,-0.7642,-0.4570,0.3777,21.2214,-16.4733,-8.3206,45.14,0
21244,-0.7473,-0.4636,0.4014,17.9847,-13.6794,-9.0687,45.14,0
21254,-0.7349,-0.4368,0.4062,12.9924,-12.8855,-7.0992,45.14,0
21264,-0.7305,-0.4124,0.4116,6.9160,-12.1679,-1.5725,45.13,0
21274,-0.7500,-0.4041,0.3923,-0.6260,-12.6412,6.1069,45.14,0
21284,-0.7751,-0.4031,0.3618,-9.6641,-15.0076,15.1298,45.14,0
21294,-0.7939,-0.4214,0.3240,-17.3435,-16.5038,21.9237,45.12,0
21304,-0.8198,-0.4456,0.2822,-19.6183,-17.0534,24.1527,45.12,0
21314,-0.8289,-0.4297,0.2537,-14.6107,-16.3969,21.7863,45.12,0
21324,-0.8176,-0.4290,0.2512,-5.6794,-16.4427,15.7557,45.14,0
21334,-0.8000,-0.4265,0.2891,4.1527,-14.0611,6.2595,45.14,0
21344,-0.7881,-0.4087,0.3274,11.8321,-9.8473,-2.8702,45.16,0
21354,-0.7769,-0.3835,0.3345,15.3130,-7.2061,-8.4733,45.16,0
21364,-0.7729,-0.3804,0.3242,14.4122,-6.9160,-9.6031,45.10,0
21374,-0.7793,-0.3799,0.3193,10.6870,-10.5802,-6.4275,45.14,0
21384,-0.7954,-0.3896,0.3145,6.5344,-16.2595,0.1069,45.12,0
21394,-0.8010,-0.4009,0.3020,2.9618,-19.6031,4.5344,45.11,0
21404,-0.8132,-0.4204,0.2893,1.2977,-20.7176,6.1069,45.15,0
21414,-0.8274,-0.4302,0.2788,3.3282,-20.0000,4.1069,45.14,0
21424,-0.8259,-0.4077,0.2661,8.3206,-20.8550,-0.6718,45.12,0
21434,-0.8191,-0.3889,0.2815,15.3282,-23.4198,-6.4122,45.13,0
21444,-0.7939,-0.3855,0.2927,20.5954,-26.2443,-11.6336,45.14,0
21454,-0.7800,-0.4011,0.2981,21.4504,-28.2443,-14.0916,45.16,0
21464,-0.7808,-0.4219,0.3000,17.9695,-32.5344,-11.4656,45.10,0
21474,-0.7754,-0.4209,0.2925,13.0534,-36.9466,-5.8015,45.13,0
21484,-0.7847,-0.4226,0.2761,8.4885,-40.5191,0.7634,45.14,0
21494,-0.7805,-0.4346,0.2815,5.4198,-41.9084,5.4656,45.16,0
21504,-0.7744,-0.4294,0.2827,5.2061,-38.3817,5.2824,45.15,0
21514,-0.7947,-0.4429,0.2900,7.6489,-31.6031,-0.2137,45.14,0
21524,-0.8167,-0.4614,0.2856,12.7939,-28.2595,-8.8702,45.15,0
21534,-0.8032,-0.4521,0.2734,18.8855,-30.6718,-16.1221,45.14,0
21544,-0.7781,-0.4231,0.2805,24.0153,-36.1985,-17.1603,45.14,0
21554,-0.7607,-0.4006,0.3059,25.2672,-41.5878,-12.1679,45.12,0
21564,-0.7588,-0.3982,0.3271,22.2901,-46.5954,-5.1756,45.14,0
21574,-0.7563,-0.4062,0.3584,17.1450,-51.2519,-0.2748,45.14,0
21584,-0.7292,-0.3987,0.3574,13.1756,-54.6260,0.8702,45.15,0
21594,-0.7175,-0.3965,0.3630,10.6718,-55.4962,0.7939,45.12,0
21604,-0.7278,-0.3721,0.3718,10.2901,-55.0840,0.7786,45.14,0
21614,-0.7273,-0.3748,0.3967,9.9695,-55.7863,-0.0458,45.14,0
21624,-0.7061,-0.4053,0.4331,8.0611,-56.8244,-1.8626,45.17,0
21634,-0.6892,-0.4053,0.4521,4.7786,-58.0916,-3.1908,45.16,0
21644,-0.6736,-0.4197,0.4678,1.3740,-62.9924,-2.3359,45.15,0
21654,-0.6360,-0.4116,0.4839,-1.4504,-69.0840,1.4504,45.15,0
21664,-0.6365,-0.3926,0.5029,-2.9618,-71.4198,7.3130,45.16,0
21674,-0.6208,-0.3813,0.5085,-5.3130,-73.4504,12.9160,45.13,0
21684,-0.6133,-0.3818,0.5239,-9.8015,-70.1527,16.9771,45.15,0
21694,-0.5999,-0.4016,0.5449,-15.0687,-64.7634,19.3588,45.16,0
21704,-0.5911,-0.4089,0.5454,-19.0076,-59.5725,19.6031,45.15,0
21714,-0.5994,-0.3943,0.5461,-20.1374,-55.3588,18.3206,45.12,0
21724,-0.6125,-0.4104,0.5454,-18.4122,-53.3282,16.6260,45.17,0
21734,-0.6235,-0.4109,0.5339,-13.3893,-54.3206,15.3130,45.17,0
21744,-0.6094,-0.3997,0.5286,-8.0153,-58.6412,14.0916,45.17,0
21754,-0.6035,-0.4058,0.5300,-4.6718,-61.6183,12.7328,45.17,0
21764,-0.6038,-0.4270,0.5310,-4.3053,-61.3740,12.1679,45.17,0
21774,-0.6243,-0.4678,0.5449,-4.2595,-58.5649,10.2901,45.16,0
21784,-0.6187,-0.5120,0.5461,-0.1679,-58.2290,3.4351,45.13,0
21794,-0.5891,-0.4897,0.5496,8.0458,-58.6870,-4.6565,45.14,0
21804,-0.5576,-0.4512,0.5649,17.4656,-60.1527,-9.3435,45.16,0
21814,-0.5623,-0.3992,0.5698,24.7481,-60.8702,-9.2977,45.13,0
21824,-0.5701,-0.3911,0.5977,25.4504,-66.2443,-5.4351,45.11,0
21834,-0.5449,-0.3794,0.6182,19.7557,-72.7176,2.6565,45.16,0
21844,-0.5137,-0.3982,0.6401,8.5649,-74.7023,12.5038,45.19,0
21854,-0.5386,-0.4495,0.6243,-1.4351,-72.7786,17.2824,45.15,0
21864,-0.5564,-0.4360,0.5994,-4.7176,-66.6870,15.2061,45.16,0
21874,-0.5811,-0.3948,0.5771,0.8092,-61.6489,9.3435,45.18,0
21884,-0.5906,-0.3689,0.5791,8.5191,-61.7557,2.5038,45.17,0
21894,-0.5654,-0.3845,0.6033,14.2137,-67.5573,-2.4122,45.17,0
21904,-0.5090,-0.3708,0.6277,17.4504,-74.7023,-4.2137,45.17,0
21914,-0.4604,-0.3396,0.6436,17.6641,-76.7023,-2.2595,45.20,0
21924,-0.4663,-0.3398,0.6489,14.2443,-78.0305,2.5344,45.14,0
21934,-0.4810,-0.3733,0.6726,7.6794,-80.9160,8.7176,45.16,0
21944,-0.4756,-0.4600,0.6812,2.2137,-87.9084,10.9008,45.16,0
21954,-0.4219,-0.4783,0.6729,4.5038,-90.0916,3.8168,45.16,0
21964,-0.3682,-0.4846,0.6965,15.6336,-82.5496,-8.4885,45.14,0
21974,-0.3384,-0.4426,0.7234,31.9237,-69.0229,-19.4656,45.15,0
21984,-0.3557,-0.3750,0.7390,45.1908,-57.8931,-25.5573,45.15,0
21994,-0.3809,-0.3186,0.7554,49.4962,-57.5420,-24.9313,45.18,0
22004,-0.3755,-0.2363,0.7683,43.6489,-62.7939,-16.9160,45.18,0
22014,-0.3801,-0.1836,0.7605,28.2443,-68.3053,-4.1985,45.18,0
22024,-0.4006,-0.2100,0.7488,4.4580,-75.0076,10.6870,45.14,0
22034,-0.4160,-0.3223,0.7224,-14.4580,-85.7863,18.5191,45.15,0
22044,-0.3665,-0.3953,0.7043,-21.0229,-93.1603,15.4198,45.16,0
22054,-0.3127,-0.4050,0.6897,-12.6565,-88.0916,3.0840,45.15,0
22064,-0.3079,-0.4041,0.6978,5.6183,-74.2595,-14.1221,45.17,0
22074,-0.3293,-0.3811,0.7163,26.7328,-59.4046,-31.4809,45.17,0
22084,-0.3386,-0.3518,0.7183,43.2824,-51.5420,-44.5802,45.14,0
22094,-0.3379,-0.3088,0.7292,50.1832,-58.6718,-47.3130,45.17,0
22104,-0.2825,-0.2405,0.7532,47.9237,-69.8168,-36.1221,45.17,0
22114,-0.2515,-0.2024,0.7739,37.0076,-79.4198,-18.9008,45.17,0
22124,-0.2363,-0.2964,0.8325,20.1221,-88.3817,-4.7481,45.19,0
22134,-0.1997,-0.3569,0.8491,5.1450,-93.6794,-1.8931,45.14,0
22144,-0.1516,-0.4082,0.8621,-1.7405,-89.3740,-9.0687,45.16,0
22154,-0.1348,-0.4595,0.8481,1.8015,-79.4198,-21.4198,45.14,0
22164,-0.1277,-0.4573,0.8357,14.8244,-63.2824,-35.1603,45.17,0
22174,-0.1355,-0.4507,0.8103,34.0763,-54.5191,-45.8321,45.15,0
22184,-0.1472,-0.3970,0.8257,48.8550,-58.8855,-44.0305,45.15,0
22194,-0.1101,-0.3147,0.8650,54.7023,-65.1298,-31.4504,45.14,0
22204,-0.1311,-0.2544,0.8843,48.6412,-67.6183,-17.1145,45.14,0
22214,-0.1577,-0.2642,0.9001,32.4427,-71.5115,-5.8626,45.18,0
22224,-0.1316,-0.2759,0.9026,13.0076,-76.3664,1.7557,45.16,0
22234,-0.0957,-0.3401,0.9060,-0.9771,-78.1069,2.3053,45.14,0
22244,-0.0520,-0.3889,0.8965,-3.9237,-73.8321,-5.8168,45.17,0
22254,-0.0081,-0.3965,0.8892,6.9008,-63.5267,-17.6947,45.16,0
22264,0.0042,-0.3833,0.8943,23.7099,-56.6718,-23.7099,45.14,0
22274,0.0110,-0.3340,0.9297,37.6183,-53.8626,-22.1679,45.17,0
22284,-0.0054,-0.2720,0.9504,42.5954,-57.0992,-14.7023,45.17,0
22294,0.0046,-0.2241,0.9839,36.7481,-63.1756,-3.3588,45.14,0
22304,0.0156,-0.1689,0.9958,21.3740,-66.9466,8.9466,45.15,0
22314,0.0068,-0.2136,1.0022,0.7176,-67.3435,18.5954,45.14,0
22324,0.0027,-0.3188,1.0032,-16.6412,-70.1527,18.3969,45.13,0
22334,0.0479,-0.3606,0.9707,-20.3511,-65.5420,4.8244,45.18,0
22344,0.0774,-0.3757,0.9453,-9.3740,-54.4885,-12.0153,45.18,0
22354,0.0691,-0.3882,0.9204,8.9466,-44.8244,-26.1069,45.17,0
22364,0.0564,-0.3528,0.9226,27.5725,-40.6107,-31.7405,45.15,0
22374,0.0396,-0.3169,0.9216,40.1374,-40.1832,-31.9542,45.12,0
22384,0.0208,-0.2903,0.9272,44.2901,-43.6183,-29.4809,45.17,0
22394,0.0430,-0.2551,0.9309,40.7023,-52.2748,-23.2519,45.13,0
22404,0.0879,-0.2136,0.9426,32.4580,-56.8397,-13.3893,45.17,0
22414,0.0874,-0.2073,0.9451,19.2519,-53.9847,-3.2061,45.18,0
22424,0.0527,-0.2368,0.9341,5.6183,-53.7252,2.3053,45.16,0
22434,0.0413,-0.2551,0.9182,-6.1221,-53.8626,4.3053,45.18,0
22444,0.0486,-0.3123,0.8933,-12.4275,-54.0153,0.4427,45.17,0
22454,0.0713,-0.3447,0.8621,-10.4733,-53.5573,-7.4504,45.17,0
22464,0.1069,-0.3884,0.8616,0.0000,-55.4656,-15.7099,45.14,0
22474,0.1499,-0.3811,0.8604,16.7176,-57.8626,-21.2824,45.15,0
22484,0.1682,-0.3499,0.8687,34.7023,-58.2443,-23.6794,45.15,0
22494,0.1790,-0.3159,0.8965,49.0840,-57.3740,-24.5954,45.16,0
22504,0.1746,-0.2727,0.9143,54.9466,-53.5267,-24.6107,45.12,0
22514,0.1746,-0.2244,0.9390,54.2901,-49.4809,-24.7786,45.15,0
22524,0.1631,-0.1777,0.9475,48.4885,-44.4580,-24.9618,45.17,0
22534,0.1599,-0.2034,0.9207,38.3053,-42.8855,-24.9924,45.21,0
22544,0.1790,-0.2085,0.9216,28.5191,-48.8397,-23.3740,45.14,0
22554,0.2207,-0.2112,0.9009,23.2977,-54.5802,-20.4733,45.17,0
22564,0.2476,-0.2253,0.9060,21.6336,-60.1221,-15.5420,45.17,0
22574,0.2451,-0.2129,0.9324,22.0153,-62.1374,-9.2824,45.18,0
22584,0.2708,-0.2085,0.9407,21.9084,-60.2290,-7.8779,45.17,0
22594,0.2844,-0.1978,0.9521,18.9618,-53.2824,-10.6412,45.17,0
22604,0.2810,-0.1895,0.9475,15.2366,-46.2595,-13.7252,45.17,0
22614,0.2695,-0.1926,0.9263,10.8397,-43.6183,-13.5115,45.15,0
22624,0.2617,-0.2173,0.8938,6.0458,-46.0916,-9.8931,45.16,0
22634,0.2585,-0.2217,0.8691,3.0382,-51.1145,-5.8779,45.14,0
22644,0.2510,-0.2236,0.8457,3.8321,-53.2519,-3.7710,45.17,0
22654,0.2522,-0.2473,0.8408,8.7023,-56.3359,-4.1221,45.17,0
22664,0.2869,-0.2532,0.8455,15.5267,-58.8092,-6.8397,45.14,0
22674,0.3091,-0.2637,0.8723,23.7252,-55.7863,-13.7557,45.17,0
22684,0.3181,-0.2500,0.8875,33.3282,-50.5496,-25.9237,45.12,0
22694,0.3491,-0.2395,0.8840,43.3740,-45.1298,-37.6489,45.17,0
22704,0.3872,-0.2229,0.8916,51.9389,-43.0992,-42.8702,45.16,0
22714,0.3958,-0.1775,0.9141,56.7328,-41.1298,-40.7023,45.13,0
22724,0.3904,-0.1604,0.9224,55.2672,-38.8244,-35.3435,45.13,0
22734,0.3708,-0.1145,0.9307,48.6412,-38.4427,-29.9695,45.13,0
22744,0.3564,-0.0823,0.9299,39.6641,-39.7710,-24.7634,45.17,0
22754,0.3608,-0.0864,0.9172,29.7099,-42.9313,-21.2214,45.16,0
22764,0.3789,-0.0891,0.9114,20.9160,-45.1756,-18.2748,45.14,0
22774,0.4019,-0.1216,0.8918,14.8244,-47.0382,-15.6794,45.14,0
22784,0.4360,-0.1440,0.9097,12.8550,-50.4275,-13.0534,45.14,0
22794,0.4695,-0.1384,0.9155,14.0458,-48.0458,-11.8626,45.17,0
22804,0.4529,-0.1372,0.9141,16.7634,-40.9771,-14.8702,45.13,0
22814,0.4290,-0.1331,0.9033,18.4886,-35.7863,-17.9389,45.14,0
22824,0.4204,-0.1406,0.8726,18.8550,-36.4427,-18.0458,45.16,0
22834,0.4524,-0.1201,0.8694,18.6565,-41.9695,-13.4656,45.15,0
22844,0.4680,-0.1094,0.8708,17.5878,-44.9160,-7.1450,45.15,0
22854,0.4644,-0.1077,0.8938,15.2061,-44.0000,-3.0229,45.14,0
22864,0.4377,-0.0945,0.9038,11.7863,-41.0840,-2.0763,45.19,0
22874,0.4229,-0.0999,0.8882,7.0534,-37.7710,-3.3588,45.17,0
22884,0.4082,-0.0933,0.8584,1.8626,-36.2137,-5.1603,45.14,0
22894,0.4189,-0.0962,0.8103,-0.7634,-37.2672,-5.0687,45.16,0
22904,0.4453,-0.1111,0.8086,-0.8550,-44.8855,-2.1679,45.16,0
22914,0.4861,-0.1243,0.8159,1.9237,-55.4046,2.8855,45.15,0
22924,0.5195,-0.1294,0.8411,6.3511,-59.9847,5.6336,45.15,0
22934,0.5396,-0.1370,0.8396,11.8931,-57.8626,3.0687,45.17,0
22944,0.5581,-0.1340,0.8513,17.6641,-49.9542,-3.1298,45.17,0
22954,0.5547,-0.1079,0.8525,21.5114,-40.3817,-9.9847,45.16,0
22964,0.5334,-0.0911,0.8572,22.4427,-32.3664,-15.3588,45.15,0
22974,0.5364,-0.0864,0.8452,19.9847,-30.7786,-15.2366,45.12,0
22984,0.5537,-0.0784,0.8394,14.9771,-34.9771,-10.1374,45.14,0
22994,0.5491,-0.0642,0.8433,9.3435,-38.9618,-2.5038,45.14,0
23004,0.5376,-0.0842,0.8337,4.1221,-42.3817,1.8626,45.17,0
23014,0.5171,-0.0908,0.8289,1.3130,-46.0611,1.3893,45.14,0
23024,0.5332,-0.1135,0.7971,2.7786,-47.0992,-3.7863,45.14,0
23034,0.5603,-0.1074,0.7810,9.7252,-45.7252,-12.2748,45.15,0
23044,0.5825,-0.0972,0.7798,22.0000,-39.9847,-22.0305,45.16,0
23054,0.6018,-0.0901,0.7876,32.5649,-35.4504,-28.3511,45.13,0
23064,0.6030,-0.0840,0.8052,37.9084,-33.4046,-29.3282,45.14,0
23074,0.6006,-0.0737,0.8042,37.4962,-33.3435,-25.7252,45.16,0
23084,0.5889,-0.0530,0.8103,33.4504,-34.2901,-20.0000,45.18,0
23094,0.5647,-0.0498,0.7886,27.7557,-36.0458,-15.7252,45.13,0
23104,0.5500,-0.0593,0.7734,23.1756,-39.4198,-14.2901,45.14,0
23114,0.5691,-0.0618,0.7478,22.2595,-45.2824,-15.1756,45.19,0
23124,0.6116,-0.0447,0.7532,25.8321,-48.0153,-17.4504,45.15,0
23134,0.6477,-0.0327,0.7646,30.1832,-45.7099,-20.3817,45.18,0
23144,0.6736,-0.0271,0.7986,32.6260,-41.7099,-22.9313,45.15,0
23154,0.6892,-0.0039,0.8049,32.5496,-39.4351,-23.4351,45.13,0
23164,0.6990,0.0139,0.8157,29.6336,-39.8321,-22.4122,45.17,0
23174,0.7129,0.0166,0.8318,25.5725,-40.7634,-19.8779,45.15,0
23184,0.7227,0.0112,0.8120,20.5496,-41.2977,-15.4809,45.14,0
23194,0.7092,0.0164,0.8093,15.2519,-40.5802,-10.0000,45.15,0
23204,0.6814,0.0200,0.7964,9.8626,-37.4504,-5.2061,45.16,0
23214,0.6663,0.0107,0.7917,4.8855,-34.5038,-3.7557,45.16,0
23224,0.6633,0.0103,0.7676,0.4275,-35.3435,-3.5878,45.14,0
23234,0.7024,0.0039,0.7480,-2.5954,-37.8321,-4.1527,45.13,0
23244,0.7278,0.0049,0.7537,-2.2595,-38.8244,-5.3588,45.14,0
23254,0.7358,0.0159,0.7590,0.3206,-35.8626,-7.9542,45.15,0
23264,0.7332,-0.0029,0.7668,2.1832,-32.7634,-11.4504,45.17,0
23274,0.7368,0.0020,0.7720,2.8397,-29.5114,-12.7481,45.15,0
23284,0.7351,0.0051,0.7637,2.8092,-26.8244,-10.6412,45.15,0
23294,0.7288,0.0100,0.7449,2.1832,-22.7786,-6.7023,45.15,0
23304,0.7158,0.0032,0.7415,0.1527,-20.0763,-2.3969,45.15,0
23314,0.6907,0.0002,0.7246,-2.9924,-21.5267,0.5038,45.14,0
23324,0.6802,-0.0093,0.6990,-6.0916,-24.9313,1.2672,45.13,0
23334,0.6899,-0.0129,0.6931,-8.0763,-27.9847,-0.3817,45.19,0
23344,0.7070,-0.0151,0.6819,-8.2595,-29.5573,-2.3664,45.18,0
23354,0.7249,-0.0193,0.7061,-7.7099,-29.1756,-2.9618,45.12,0
23364,0.7402,-0.0134,0.7031,-6.4733,-26.7328,-2.6870,45.14,0
23374,0.7397,-0.0083,0.7075,-5.7252,-22.3359,-3.4656,45.18,0
23384,0.7429,-0.0127,0.6960,-5.7557,-18.8550,-4.3053,45.14,0
23394,0.7375,-0.0115,0.6711,-6.2595,-18.1374,-3.8168,45.15,0
23404,0.7598,-0.0117,0.6689,-5.9542,-21.9389,-0.9008,45.13,0
23414,0.7786,-0.0247,0.6675,-4.5038,-24.3969,3.4198,45.15,0
23424,0.7581,-0.0369,0.6758,-2.6412,-25.3588,5.0076,45.13,0
23434,0.7683,-0.0210,0.6790,1.4656,-23.1603,1.9542,45.15,0
23444,0.7854,-0.0120,0.6790,8.0000,-17.6489,-4.4427,45.14,0
23454,0.7971,0.0005,0.6899,12.9924,-12.0611,-9.8626,45.16,0
23464,0.8093,0.0063,0.7109,14.7786,-8.3664,-12.6718,45.15,0
23474,0.8132,0.0054,0.7322,12.7634,-6.1985,-12.7176,45.13,0
23484,0.7971,0.0015,0.7239,8.5954,-4.0305,-9.4504,45.19,0
23494,0.7761,-0.0090,0.7146,3.7405,-4.2290,-5.0992,45.14,0
23504,0.7603,-0.0139,0.7056,-0.1832,-5.5267,-0.5038,45.16,0
23514,0.7375,-0.0166,0.6917,-2.8550,-7.0229,2.5344,45.13,0
23524,0.7268,-0.0190,0.6780,-4.4733,-7.9084,3.3740,45.13,0
23534,0.7175,-0.0149,0.6716,-4.3664,-7.7710,2.5344,45.15,0
23544,0.7231,-0.0195,0.6616,-3.3130,-6.6412,0.8550,45.15,0
23554,0.7388,-0.0271,0.6367,-2.3817,-6.1527,-0.9618,45.14,0
23564,0.7422,-0.0134,0.6499,-0.7481,-6.4580,-2.4275,45.15,0
23574,0.7441,-0.0330,0.6484,0.9008,-7.1298,-3.6183,45.14,0
23584,0.7478,-0.0303,0.6655,1.8779,-8.3359,-4.3359,45.15,0
23594,0.7751,-0.0383,0.6646,2.9313,-8.6718,-3.8473,45.15,0
23604,0.7773,-0.0300,0.6511,5.5267,-5.3130,-3.2519,45.14,0
23614,0.7727,-0.0239,0.6599,7.9847,-2.9924,-2.5191,45.17,0
23624,0.7698,-0.0103,0.6658,8.7328,-1.9542,-2.6565,45.17,0
23634,0.7639,0.0039,0.6750,7.8779,-1.7557,-3.9542,45.18,0
23644,0.7583,0.0039,0.6521,7.2214,-1.9542,-5.5420,45.17,0
23654,0.7744,0.0098,0.6465,7.4504,-5.4351,-4.8855,45.16,0
23664,0.7917,0.0371,0.6453,9.1756,-8.2443,-1.0076,45.13,0
23674,0.7742,0.0398,0.6726,7.1298,-7.4351,0.9008,45.15,0
23684,0.7166,0.0364,0.6648,0.8092,-4.2443,-0.2443,45.18,0
23694,0.7139,0.0242,0.6443,-7.5267,-6.3053,-1.0840,45.15,0
23704,0.7332,0.0073,0.6431,-16.1374,-11.2672,0.7176,45.15,0
23714,0.7576,-0.0166,0.6123,-20.3817,-14.1985,3.2672,45.17,0
23724,0.7805,-0.0518,0.6067,-17.6794,-15.8626,4.0611,45.17,0
23734,0.8030,-0.0471,0.5935,-8.4427,-14.1374,2.4733,45.17,0
23744,0.8132,-0.0459,0.6226,2.2290,-13.3282,-1.7710,45.17,0
23754,0.8169,-0.0300,0.6504,10.8397,-12.5344,-5.9389,45.17,0
23764,0.8240,-0.0017,0.6714,14.1374,-9.9237,-8.4733,45.17,0
23774,0.8176,0.0127,0.6892,12.8550,-5.8626,-8.9313,45.17,0
23784,0.8030,0.0142,0.6816,9.7099,-2.0153,-6.8550,45.16,0
23794,0.7908,0.0186,0.6729,5.9237,-1.0992,-3.4962,45.21,0
23804,0.7803,0.0090,0.6643,2.1679,-1.7863,-1.1450,45.19,0
23814,0.8000,-0.0020,0.6116,-0.5191,-6.1679,0.7328,45.15,0
23824,0.7932,-0.0107,0.6255,-2.2901,-14.3206,4.5802,45.16,0
23834,0.7856,-0.0154,0.6465,-3.4046,-17.7710,8.9771,45.17,0
23844,0.6960,-0.0015,0.6548,-6.1069,-17.0840,8.5649,45.14,1
23854,0.7671,0.0005,0.6733,-8.1069,-13.0992,5.7863,45.15,1
23864,0.7886,-0.0017,0.6558,-9.0992,-8.5649,0.8397,45.17,1
23874,0.8015,-0.0107,0.6394,-7.0840,-4.9160,-4.1069,45.19,1
23884,0.8096,-0.0168,0.6401,-1.7252,-0.7939,-8.3206,45.17,1
23894,0.7983,-0.0291,0.6328,3.8779,2.1832,-11.4351,45.19,1
23904,0.8076,-0.0293,0.6006,7.7863,1.8321,-11.1450,45.15,1
23914,0.8005,-0.0120,0.6077,8.9924,-3.1450,-8.7634,45.13,1
23924,0.7805,-0.0037,0.6182,9.3893,-5.0840,-3.1450,45.16,1
23934,0.7686,-0.0144,0.6289,9.6794,-5.1756,0.9771,45.14,1
23944,0.7612,-0.0056,0.6357,9.3435,-4.8397,1.6947,45.17,1
23954,0.7786,0.0000,0.6379,9.1908,-4.4427,-0.2137,45.15,1
23964,0.7893,0.0217,0.6411,8.9618,-2.8397,-4.0611,45.16,1
23974,0.8137,0.0229,0.6521,8.1527,-0.7634,-7.8779,45.16,1
23984,0.8259,0.0312,0.6687,7.6336,2.0916,-10.5191,45.16,1
23994,0.8242,0.0212,0.6792,5.5115,3.9389,-11.3893,45.16,1
24004,0.8159,0.0034,0.6653,1.1145,4.5038,-10.7939,45.19,1
24014,0.8118,-0.0020,0.6414,-0.8092,3.9847,-9.2061,45.17,1
24024,0.7979,-0.0083,0.6465,0.7786,4.3053,-7.6183,45.18,1
24034,0.7856,-0.0198,0.6218,5.8321,6.2901,-7.7710,45.18,1
24044,0.7859,-0.0217,0.6040,12.1527,1.4198,-7.8321,45.16,1
24054,0.8096,-0.0137,0.6104,17.6794,-5.9389,-4.5191,45.19,1
24064,0.8247,-0.0059,0.6162,21.1145,-6.6412,-0.5954,45.19,1
24074,0.7991,0.0112,0.6235,22.9466,-2.3817,1.3435,45.17,1
24084,0.7720,0.0256,0.6414,23.3740,2.0916,0.0611,45.16,1
24094,0.7620,0.0349,0.6362,21.9389,3.6641,-2.4122,45.15,1
24104,0.7686,0.0447,0.6362,19.2061,3.4504,-5.6183,45.18,1
24114,0.7827,0.0518,0.6292,16.0611,2.6412,-7.7405,45.20,1
24124,0.7939,0.0496,0.6379,12.4580,0.6565,-7.6031,45.15,1
24134,0.8005,0.0427,0.6433,8.3053,-1.6183,-4.3206,45.16,1
24144,1.1399,-0.2568,0.3367,3.3130,-2.0916,-1.1145,45.18,0
24154,0.9243,0.0078,0.6235,4.3206,-1.0534,4.8702,45.19,0
24164,0.7686,0.0295,0.6111,3.7099,-1.9847,3.0229,45.19,0
24174,0.7776,0.0254,0.6133,3.9542,-2.2748,-0.1832,45.18,0
24184,0.8000,0.0396,0.5952,5.4656,0.8244,-2.5038,45.15,0
24194,0.8032,0.0366,0.6157,5.6947,2.0763,-4.2595,45.18,0
24204,0.7830,0.0320,0.6306,4.7786,0.3664,-2.6565,45.18,0
24214,0.7888,0.0239,0.6318,2.2290,-3.8168,0.9618,45.19,0
24224,0.7896,0.0273,0.6338,-0.8397,-6.0763,3.1756,45.16,0
24234,0.7947,0.0232,0.6292,-2.2748,-6.1832,2.5649,45.16,0
24244,0.8079,0.0232,0.6218,-0.6107,-3.7252,0.8550,45.20,0
24254,0.8049,0.0208,0.6213,2.8397,0.3053,-0.8702,45.17,0
24264,0.7961,0.0264,0.6111,5.4656,3.1450,-2.2901,45.19,0
24274,0.7766,0.0374,0.6228,5.6031,4.1527,-2.7939,45.19,0
24284,0.7739,0.0281,0.6248,3.5115,1.9847,-2.0916,45.18,0
24294,0.7810,0.0237,0.6191,0.3359,-1.0229,-0.0916,45.19,0
24304,0.7874,0.0161,0.6125,-1.7557,-4.1527,2.0916,45.17,0
24314,0.7952,0.0146,0.6140,-1.6336,-5.1145,3.5878,45.17,0
24324,0.7849,0.0203,0.6213,0.4427,-2.9924,3.2061,45.18,0
24334,0.7761,0.0229,0.6179,2.0611,-1.9847,1.4656,45.19,0
24344,0.7986,0.0249,0.6125,2.1679,-2.5038,-0.5191,45.19,0
24354,0.8176,0.0234,0.6079,3.6183,0.0763,-1.4656,45.18,0
24364,0.8130,0.0166,0.6091,6.0611,3.0382,-1.1450,45.16,0
24374,0.7842,0.0283,0.6152,7.7405,4.0000,-0.0611,45.18,0
24384,0.7700,0.0344,0.6157,7.2824,0.4733,1.3588,45.17,0
24394,0.7891,0.0361,0.6211,4.8244,-4.0458,2.3664,45.21,0
24404,0.8101,0.0488,0.6277,3.2366,-3.7252,2.8092,45.21,0
24414,0.7969,0.0413,0.6323,3.8931,0.4733,1.9847,45.22,0
24424,0.7761,0.0276,0.6235,4.7176,2.1069,0.9008,45.17,0
24434,0.7651,0.0347,0.6218,4.0305,1.2824,-0.6260,45.16,0
24444,0.7812,0.0371,0.6096,3.2366,-1.3740,-2.2443,45.22,0
24454,0.8147,0.0256,0.6028,2.4122,-2.7786,-2.3969,45.19,0
24464,0.8206,0.0112,0.6108,2.8397,-2.2290,-1.2519,45.18,0
24474,0.8135,0.0100,0.6155,5.1298,-1.6183,-0.1069,45.19,0
24484,0.8081,0.0173,0.6318,7.6183,-1.3588,-0.0458,45.18,0
24494,0.8052,0.0295,0.6409,7.8321,-1.1603,-1.0076,45.22,0
24504,0.8105,0.0408,0.6416,6.2901,0.3817,-1.6183,45.18,0
24514,0.8008,0.0422,0.6399,4.6107,1.4656,-1.4504,45.18,0
24524,0.7937,0.0530,0.6367,3.9084,1.8168,-0.9466,45.19,0
24534,0.7822,0.0562,0.6272,3.5878,1.1450,-0.6870,45.21,0
24544,0.7715,0.0552,0.6262,2.3359,-0.4733,-0.2748,45.19,0
24554,0.7769,0.0564,0.6267,-0.0153,-2.6260,0.7023,45.19,0
24564,0.7878,0.0408,0.6230,-2.9466,-4.1679,1.5725,45.18,0
24574,0.7966,0.0232,0.6179,-4.7634,-3.9695,2.2137,45.17,0
24584,0.8137,0.0034,0.6177,-4.8550,-3.0076,2.1679,45.20,0
24594,0.8115,-0.0034,0.6079,-2.7328,-0.8855,1.5878,45.20,0
24604,0.8162,0.0017,0.6172,0.9924,0.9466,0.9160,45.21,0
24614,0.7983,0.0085,0.6199,4.8550,3.2214,0.0916,45.16,0
24624,0.7930,0.0166,0.6167,7.1145,4.7634,-1.4198,45.19,0
24634,0.7874,0.0359,0.6277,7.5420,4.4580,-2.8550,45.18,0
24644,0.7959,0.0425,0.6191,7.0534,1.7710,-2.4122,45.19,0
24654,0.8027,0.0393,0.6213,5.9237,-0.3511,-0.7023,45.17,0
24664,0.7979,0.0442,0.6257,4.4275,-1.2214,1.0534,45.17,0
24674,0.7952,0.0425,0.6348,3.2366,-1.2977,1.9084,45.19,0
24684,0.7983,0.0452,0.6401,1.9542,0.2443,1.4809,45.20,0
24694,0.8088,0.0598,0.6333,0.8855,2.9618,0.7328,45.19,0
24704,0.8013,0.0618,0.6318,0.4885,5.3893,-0.1985,45.23,0
24714,0.8015,0.0461,0.6257,-0.0916,6.6870,-1.0382,45.19,0
24724,0.8145,0.0359,0.6230,-0.4275,6.2901,-1.4046,45.20,0
24734,0.8345,0.0320,0.6260,0.4885,6.5344,-1.3130,45.19,0
24744,0.8396,0.0229,0.6316,2.2901,7.6489,-1.2977,45.18,0
24754,0.8438,0.0112,0.6472,3.8473,9.3130,-1.8473,45.17,0
24764,0.8438,0.0015,0.6592,3.9237,11.9542,-1.8626,45.21,0
24774,0.8376,0.0027,0.6572,2.7786,15.0229,-0.4275,45.18,0
24784,0.8174,0.0083,0.6592,0.7023,16.6412,2.4427,45.19,0
24794,0.8064,0.0232,0.6641,-2.9771,14.8244,5.6794,45.21,0
24804,0.8049,0.0281,0.6738,-8.1985,10.9008,7.6794,45.19,0
24814,0.8101,0.0210,0.6772,-11.7710,8.8855,8.3511,45.19,0
24824,0.8132,0.0117,0.6733,-12.6870,9.5420,8.0153,45.19,0
24834,0.8289,0.0042,0.6643,-10.1832,12.7328,7.1145,45.20,0
24844,0.8247,0.0146,0.6694,-5.1145,16.5038,6.0611,45.22,0
24854,0.8042,0.0173,0.6865,0.1679,20.3969,3.2672,45.19,0
24864,0.8118,0.0156,0.6936,4.0153,22.0458,-1.4351,45.21,0
24874,0.8333,0.0198,0.7073,6.5038,22.8244,-5.2672,45.22,0
24884,0.8450,0.0200,0.7244,7.7557,24.2595,-5.2366,45.21,0
24894,0.8521,0.0156,0.7419,7.4351,26.5038,-2.8244,45.20,0
24904,0.8511,0.0190,0.7688,5.5267,30.3511,-0.6260,45.19,0
24914,0.8577,0.0381,0.7825,2.8397,32.9160,0.0916,45.19,0
24924,0.8638,0.0332,0.8035,-0.0763,35.8779,0.0611,45.22,0
24934,0.8577,0.0308,0.8062,-2.9466,41.1145,0.1069,45.16,0
24944,0.8352,0.0327,0.8093,-5.9389,46.2901,0.2901,45.19,0
24954,0.8059,0.0271,0.8157,-10.5191,49.7557,1.5420,45.18,0
24964,0.7917,0.0151,0.8027,-15.7405,51.7405,4.1679,45.19,0
24974,0.7754,0.0044,0.8057,-19.4809,53.0840,6.0611,45.18,0
24984,0.7837,-0.0059,0.8005,-20.4733,54.5344,5.6336,45.21,0
24994,0.7815,-0.0125,0.8071,-18.2901,58.5038,3.4504,45.24,0
25004,0.7590,-0.0115,0.8149,-14.0153,64.5954,1.7405,45.19,0
25014,0.7383,-0.0244,0.8342,-10.8092,67.4657,0.8855,45.19,0
25024,0.7344,-0.0305,0.8452,-11.6031,68.5496,1.6183,45.22,0
25034,0.7358,-0.0298,0.8479,-14.9160,69.5725,4.1832,45.20,0
25044,0.7312,-0.0452,0.8455,-18.5344,69.5115,7.6489,45.22,0
25054,0.7302,-0.0339,0.8447,-19.4046,70.0153,10.7481,45.22,0
25064,0.7246,-0.0383,0.8372,-17.0840,72.6107,10.9466,45.20,0
25074,0.7280,-0.0261,0.8601,-13.1298,75.4198,8.1374,45.18,0
25084,0.7441,-0.0125,0.8762,-8.2290,76.5496,4.0153,45.22,0
25094,0.7715,-0.0022,0.8916,-4.0611,77.0076,0.5191,45.17,0
25104,0.7957,0.0347,0.9077,-0.3969,80.0458,-0.2901,45.20,0
25114,0.7844,0.0610,0.9402,2.1527,90.0763,0.2595,45.21,0
25124,0.7590,0.0879,0.9646,1.2214,99.7557,-1.5878,45.19,0
25134,0.7195,0.0757,0.9551,-3.4962,108.2443,-4.2748,45.19,0
25144,0.6973,0.0701,0.9565,-11.8931,109.8626,-4.4580,45.24,0
25154,0.6812,0.0591,0.9343,-22.4427,107.8321,-0.9618,45.18,0
25164,0.6887,0.0457,0.9285,-33.1298,104.7634,7.3588,45.21,0
25174,0.6677,0.0400,0.9050,-41.4962,105.1298,16.5344,45.17,0
25184,0.6272,0.0164,0.9050,-47.5267,108.2901,22.3053,45.15,0
25194,0.5730,0.0229,0.8889,-49.4656,111.8626,20.8550,45.17,0
25204,0.5474,0.0178,0.8884,-45.5267,113.9847,14.0458,45.19,0
25214,0.5366,-0.0049,0.8821,-37.8015,114.3969,6.5038,45.17,0
25224,0.5339,-0.0073,0.8860,-28.2595,116.0000,1.5420,45.21,0
25234,0.5173,-0.0515,0.9197,-21.3740,121.3130,-1.6183,45.18,0
25244,0.4971,-0.0720,0.9319,-20.2443,127.6489,-4.4122,45.17,0
25254,0.4785,-0.0664,0.9263,-23.2214,129.7405,-6.8702,45.19,0
25264,0.4697,-0.0496,0.9258,-27.0840,128.7634,-6.3511,45.22,0
25274,0.4761,-0.0403,0.9236,-30.8550,126.9618,-1.3130,45.16,0
25284,0.4526,-0.0291,0.9255,-33.5878,130.0916,4.2443,45.16,0
25294,0.3984,-0.0596,0.9326,-35.2214,134.1527,5.6641,45.18,0
25304,0.3677,-0.1033,0.9346,-36.8702,135.4198,2.7786,45.17,0
25314,0.3481,-0.1172,0.9250,-37.4809,135.2214,0.0763,45.19,0
25324,0.3342,-0.1055,0.8955,-35.6489,132.5496,-0.1985,45.19,0
25334,0.3286,-0.1230,0.9087,-33.1603,130.0916,2.6870,45.18,0
25344,0.3179,-0.1128,0.9319,-31.4962,130.5802,6.4733,45.17,0
25354,0.2812,-0.0894,0.9294,-31.4809,136.8244,6.4733,45.17,0
25364,0.2126,-0.0830,0.9209,-31.9695,142.8550,1.8015,45.21,0
25374,0.1758,-0.0854,0.9038,-32.7328,142.4122,-1.3130,45.18,0
25384,0.1753,-0.0720,0.8958,-36.4885,137.8168,1.6336,45.15,0
25394,0.1721,-0.1086,0.9128,-43.2824,132.9160,7.1450,45.17,0
25404,0.1418,-0.0959,0.8879,-48.4427,133.6031,8.4733,45.21,0
25414,0.1062,-0.1799,0.8970,-51.2977,135.9237,5.6641,45.18,0
25424,0.1047,-0.2031,0.8652,-48.6870,133.9237,0.5802,45.18,0
25434,0.1101,-0.1794,0.8560,-39.5267,134.7786,-5.0382,45.17,0
25444,0.0720,-0.1543,0.8669,-26.9313,136.7023,-8.8855,45.19,0
25454,0.0320,-0.1472,0.8726,-17.6947,141.5725,-11.1908,45.17,0
25464,-0.0515,-0.1497,0.8713,-21.0687,148.1221,-10.9160,45.16,0
25474,-0.1162,-0.1404,0.8367,-36.6870,147.3588,-6.7481,45.19,0
25484,-0.1470,-0.1638,0.7913,-57.9084,140.2901,-0.5954,45.18,0
25494,-0.1321,-0.2363,0.7527,-73.2977,128.3664,2.9313,45.17,0
25504,-0.0940,-0.2166,0.7175,-74.2443,120.9618,4.2595,45.19,0
25514,-0.0713,-0.2144,0.7324,-61.9084,122.5954,6.1221,45.17,0
25524,-0.1245,-0.2454,0.7361,-45.5725,127.0076,5.7863,45.17,0
25534,-0.1885,-0.2898,0.7585,-34.5649,134.3969,3.2977,45.15,0
25544,-0.2444,-0.3296,0.7483,-35.0229,139.8473,0.1069,45.17,0
25554,-0.3018,-0.3406,0.6934,-45.7710,137.7099,0.2901,45.15,0
25564,-0.3252,-0.3442,0.6440,-61.6947,131.8015,7.5878,45.16,0
25574,-0.3613,-0.3542,0.5894,-76.5343,121.1603,19.1298,45.15,0
25584,-0.3843,-0.3630,0.5278,-86.7939,110.7176,30.9618,45.19,0
25594,-0.3965,-0.4060,0.5283,-89.8626,103.9847,39.8015,45.17,0
25604,-0.4006,-0.4255,0.5403,-80.0611,99.5115,37.9237,45.16,0
25614,-0.3984,-0.3989,0.5566,-59.3435,99.0076,27.9847,45.15,0
25624,-0.4038,-0.3823,0.5996,-33.3130,98.5191,16.0000,45.17,0
25634,-0.3701,-0.3848,0.6528,-11.2977,99.0534,7.5115,45.19,0
25644,-0.3516,-0.3933,0.6919,0.6565,101.7710,3.2366,45.17,0
25654,-0.3508,-0.3804,0.7102,2.1832,108.5496,2.5344,45.15,0
25664,-0.3904,-0.3511,0.7048,-3.4198,115.6336,4.5191,45.16,0
25674,-0.4150,-0.3513,0.6868,-13.3740,115.2519,6.7023,45.19,0
25684,-0.4338,-0.3198,0.6333,-21.5878,112.5343,9.8015,45.15,0
25694,-0.4731,-0.3079,0.6167,-27.9695,110.3511,14.7023,45.15,0
25704,-0.5146,-0.3210,0.5916,-28.1679,101.8015,17.0840,45.17,0
25714,-0.4956,-0.3069,0.5928,-23.1603,96.4580,15.4809,45.16,0
25724,-0.4612,-0.3340,0.6174,-18.1221,97.0992,10.5649,45.17,0
25734,-0.4600,-0.3574,0.6301,-17.7710,103.0382,5.6489,45.17,0
25744,-0.4749,-0.3650,0.6055,-21.9084,107.4046,4.9466,45.16,0
25754,-0.5049,-0.3855,0.5708,-27.8168,107.4504,10.3511,45.15,0
25764,-0.5295,-0.3528,0.5139,-29.4046,102.2443,16.9313,45.15,0
25774,-0.5603,-0.3125,0.4756,-28.9008,101.2366,22.3206,45.17,0
25784,-0.6023,-0.3455,0.4492,-30.1527,100.9924,24.3206,45.21,0
25794,-0.6526,-0.3389,0.3879,-35.6183,101.8168,23.2061,45.18,0
25804,-0.6780,-0.3975,0.3264,-45.6641,98.9008,23.0382,45.16,0
25814,-0.7041,-0.4441,0.2439,-54.4427,91.1756,25.9084,45.16,0
25824,-0.7246,-0.4597,0.1694,-57.4046,84.0458,30.3053,45.18,0
25834,-0.7847,-0.4224,0.1155,-47.8168,79.8015,33.2672,45.16,0
25844,-0.8433,-0.3901,0.0930,-27.2061,74.9618,29.1908,45.15,0
25854,-0.8503,-0.4143,0.1255,-2.0611,65.0534,18.0305,45.16,0
25864,-0.8032,-0.4553,0.1882,19.4198,56.9160,3.8779,45.15,0
25874,-0.7603,-0.4277,0.2444,31.5267,58.3359,-7.8473,45.19,0
25884,-0.7505,-0.4211,0.2666,33.1908,62.8550,-14.4885,45.18,0
25894,-0.7278,-0.3884,0.3040,25.2061,67.0229,-16.1985,45.17,0
25904,-0.7349,-0.4182,0.3325,10.7176,68.1221,-13.3130,45.17,0
25914,-0.7476,-0.4436,0.3313,-5.3740,63.1450,-6.9466,45.17,0
25924,-0.7332,-0.4529,0.3250,-14.0305,54.4885,-0.0305,45.16,0
25934,-0.7319,-0.4412,0.3181,-15.3282,45.2824,8.7328,45.19,0
25944,-0.7241,-0.3918,0.3384,-10.5496,36.2748,16.5038,45.14,0
25954,-0.7224,-0.3147,0.3555,-3.1603,33.0992,20.7023,45.14,0
25964,-0.7522,-0.2966,0.3594,-0.4427,33.9084,19.8321,45.17,0
25974,-0.7764,-0.3496,0.3472,-4.1527,34.6870,15.6183,45.17,0
25984,-0.7705,-0.3713,0.3018,-11.3740,35.3435,11.1603,45.17,0
25994,-0.7815,-0.3726,0.2483,-17.3130,36.8092,9.6336,45.15,0
26004,-0.8171,-0.3823,0.2043,-19.3893,35.2214,12.1679,45.17,0
26014,-0.8438,-0.3655,0.1938,-20.0916,31.3435,15.0840,45.17,0
26024,-0.8608,-0.3950,0.2080,-21.4198,25.4962,15.5573,45.18,0
26034,-0.8477,-0.4263,0.2000,-22.8397,21.2214,14.3053,45.20,0
26044,-0.8364,-0.4465,0.1946,-22.4275,17.9542,12.5191,45.19,0
26054,-0.8308,-0.4368,0.1941,-18.3359,16.5191,11.0382,45.16,0
26064,-0.8240,-0.4377,0.1865,-13.4046,15.2061,11.1908,45.15,0
26074,-0.8503,-0.4595,0.2078,-10.7023,13.5420,11.9237,45.17,0
26084,-0.8682,-0.4612,0.2065,-9.8779,11.3893,12.1069,45.19,0
26094,-0.8767,-0.4600,0.2004,-8.8397,7.9237,11.6641,45.17,0
26104,-0.8806,-0.4561,0.1995,-7.6031,2.9160,11.3130,45.18,0
26114,-0.8848,-0.4500,0.1912,-5.1908,-3.0992,11.5878,45.19,0
26124,-0.8589,-0.4075,0.1875,-1.2672,-9.7710,11.5420,45.18,0
26134,-0.8274,-0.4082,0.2056,3.5725,-13.7710,11.7252,45.18,0
26144,-0.8132,-0.4280,0.2234,9.3130,-12.0916,10.9008,45.17,0
26154,-0.8174,-0.4346,0.2600,17.6031,-3.4351,5.6031,45.17,0
26164,-0.8469,-0.3914,0.2571,25.3588,5.4198,-1.8321,45.17,0
26174,-0.8684,-0.3184,0.2800,28.7939,9.4656,-7.7405,45.20,0
26184,-0.8721,-0.2837,0.2937,25.5725,8.8855,-9.0992,45.21,0
26194,-0.8640,-0.2900,0.3042,17.0076,6.3206,-7.5420,45.18,0
26204,-0.8347,-0.3301,0.3191,7.4962,2.5038,-6.2901,45.16,0
26214,-0.7983,-0.3557,0.3301,0.9313,1.3588,-6.7023,45.16,0
26224,-0.7847,-0.3696,0.3262,-2.4427,2.0153,-5.8931,45.18,0
26234,-0.7754,-0.4048,0.3306,-3.4504,0.8244,-3.0840,45.17,0
26244,-0.7759,-0.4229,0.3301,-2.3511,-1.6947,-0.1832,45.14,0
26254,-0.7771,-0.4214,0.3350,-0.0458,-3.7863,1.8626,45.20,0
26264,-0.7673,-0.4321,0.3276,2.0611,-3.6336,2.1985,45.14,0
26274,-0.7637,-0.4207,0.3245,3.5878,-1.3435,1.9389,45.15,0
26284,-0.7625,-0.4128,0.3320,3.9542,1.4504,2.1069,45.18,0
26294,-0.7700,-0.3628,0.3198,2.4580,4.5496,2.1832,45.18,0
26304,-0.7939,-0.3252,0.2883,-1.2672,6.0000,3.3588,45.20,0
26314,-0.8284,-0.3289,0.2656,-6.3511,3.2977,6.0763,45.15,0
26324,-0.8403,-0.3369,0.2380,-8.6260,0.0916,7.2824,45.17,0
26334,-0.8542,-0.3606,0.2280,-6.9924,-3.1145,5.8473,45.20,0
26344,-0.8499,-0.3779,0.2253,-1.0992,-6.0916,1.5267,45.20,0
26354,-0.8374,-0.3794,0.2500,6.4275,-7.2519,-4.3969,45.19,0
26364,-0.8193,-0.3828,0.2708,12.8397,-8.1221,-9.7863,45.17,0
26374,-0.7947,-0.3704,0.2891,15.9237,-7.8321,-12.8244,45.19,0
26384,-0.7852,-0.3953,0.3230,16.1069,-7.3740,-13.8931,45.19,0
26394,-0.7798,-0.3889,0.3403,14.7176,-7.9237,-13.4656,45.19,0
26404,-0.7703,-0.3738,0.3628,11.5115,-8.3053,-11.0229,45.17,0
26414,-0.7605,-0.3735,0.3591,5.6641,-8.6870,-6.8550,45.21,0
26424,-0.7783,-0.3577,0.3494,-1.4351,-8.6718,-2.9924,45.16,0
26434,-0.8018,-0.3677,0.3267,-8.2290,-8.8855,-0.2748,45.19,0
26444,-0.8096,-0.4021,0.3069,-12.5954,-10.3817,-0.4275,45.19,0
26454,-0.8201,-0.4119,0.2949,-12.8244,-10.9008,-2.5038,45.19,0
26464,-0.8110,-0.4482,0.2920,-9.2519,-11.2366,-5.8321,45.18,0
26474,-0.7898,-0.4802,0.2917,-2.5038,-10.8855,-9.5420,45.17,0
26484,-0.7783,-0.4875,0.2925,4.3511,-10.4122,-10.7023,45.17,0
26494,-0.7698,-0.4885,0.2932,10.2748,-11.2824,-9.2977,45.19,0
26504,-0.7551,-0.4697,0.3037,14.5496,-10.9160,-7.0229,45.18,0
26514,-0.7632,-0.4443,0.3103,15.7099,-9.2977,-4.7023,45.19,0
26524,-0.7854,-0.4158,0.3223,13.0229,-8.1221,-2.0000,45.18,0
26534,-0.8010,-0.3877,0.3059,6.9008,-9.4809,1.3588,45.16,0
26544,-0.8154,-0.3914,0.2915,-1.0534,-11.9389,4.7634,45.15,0
26554,-0.8320,-0.4124,0.2734,-7.2519,-15.8168,7.0840,45.20,0
26564,-0.8264,-0.4448,0.2522,-7.8626,-20.0000,6.8855,45.19,0
26574,-0.8071,-0.4585,0.2524,-4.0458,-22.5038,5.0840,45.20,0
26584,-0.8020,-0.4438,0.2534,3.0534,-23.7405,3.0229,45.22,0
26594,-0.7896,-0.4128,0.2708,10.1985,-24.3969,0.9618,45.18,0
26604,-0.7905,-0.3840,0.2939,14.7481,-23.4656,0.2290,45.22,0
26614,-0.7947,-0.3472,0.3071,13.5725,-24.5191,1.4962,45.20,0
26624,-0.8191,-0.3047,0.3005,6.7481,-27.3893,5.2519,45.21,0
26634,-0.8438,-0.3228,0.2776,-5.2519,-32.3817,11.1756,45.17,0
26644,-0.8635,-0.4131,0.2422,-19.0382,-43.0687,18.2901,45.20,0
26654,-0.8496,-0.4509,0.2075,-24.0763,-51.4046,20.7023,45.18,0
26664,-0.8035,-0.4492,0.2007,-18.3053,-53.2214,17.6183,45.19,0
26674,-0.8047,-0.4731,0.2156,-5.8779,-47.1908,11.3893,45.18,0
26684,-0.8323,-0.4456,0.2334,8.1832,-42.5344,4.9618,45.21,0
26694,-0.8528,-0.3982,0.2585,19.4198,-43.3130,-1.5878,45.20,0
26704,-0.8342,-0.3455,0.3064,24.5496,-49.6489,-6.3053,45.21,0
26714,-0.7837,-0.2917,0.3494,23.1756,-55.8321,-8.1832,45.20,0
26724,-0.7346,-0.3438,0.3945,14.4427,-59.2672,-7.4656,45.14,0
26734,-0.6982,-0.3958,0.4214,4.2290,-60.9924,-6.6718,45.18,0
26744,-0.6824,-0.4465,0.4133,-2.6870,-60.0763,-5.2824,45.19,0
26754,-0.6858,-0.4814,0.3960,-2.5954,-60.1527,-3.7252,45.21,0
26764,-0.6938,-0.4692,0.3901,4.8397,-60.5344,-2.4733,45.18,0
26774,-0.7029,-0.4214,0.4089,14.8550,-61.4962,-2.6718,45.21,0
26784,-0.6980,-0.3550,0.4414,21.3130,-61.8473,-3.9084,45.22,0
26794,-0.6831,-0.2837,0.4658,18.9160,-62.0611,-3.7252,45.24,0
26804,-0.6875,-0.2539,0.4866,5.3435,-64.6565,1.9847,45.22,0
26814,-0.6770,-0.3523,0.5115,-12.5496,-69.9695,8.6107,45.21,0
26824,-0.6560,-0.4473,0.4978,-26.9008,-75.3130,9.7405,45.20,0
26834,-0.6333,-0.5415,0.4619,-28.7939,-74.0916,3.8473,45.20,0
26844,-0.6384,-0.6165,0.4263,-16.4886,-70.0611,-5.6947,45.19,0
26854,-0.6448,-0.6462,0.3723,7.2977,-67.1756,-15.3435,45.19,0
26864,-0.6702,-0.6394,0.3518,37.7405,-66.0000,-24.1679,45.21,0
26874,-0.6616,-0.5728,0.3489,69.8321,-67.5420,-30.5038,45.22,0
26884,-0.6206,-0.3892,0.4373,97.5267,-70.7481,-34.3969,45.22,0
26894,-0.5566,-0.2593,0.5510,105.5267,-71.8015,-32.9618,45.21,0
26904,-0.5391,-0.1504,0.6580,91.4657,-65.2214,-23.7710,45.20,0
26914,-0.5625,-0.1692,0.6663,55.9542,-63.0534,-6.0611,45.24,0
26924,-0.5977,-0.2805,0.6741,10.8397,-72.9466,11.3893,45.21,0
26934,-0.5752,-0.3203,0.6365,-21.4046,-84.1679,19.1603,45.22,0
26944,-0.5273,-0.3677,0.5889,-30.6107,-86.5343,16.9771,45.20,0
26954,-0.5105,-0.4446,0.5791,-21.6947,-82.6107,10.1221,45.19,0
26964,-0.4954,-0.4629,0.6064,1.5115,-76.9771,-0.3664,45.19,0
26974,-0.4536,-0.3926,0.6675,25.1908,-73.0076,-9.8015,45.20,0
26984,-0.4207,-0.3325,0.7415,38.6107,-69.3740,-13.7557,45.20,0
26994,-0.4160,-0.2568,0.7766,35.9847,-67.3435,-7.0840,45.19,0
27004,-0.4341,-0.2476,0.7993,17.7557,-67.2214,8.0000,45.20,0
27014,-0.4590,-0.3303,0.7961,-10.9466,-72.2290,23.9847,45.21,0
27024,-0.4922,-0.4009,0.7542,-33.8779,-76.7176,30.5038,45.18,0
27034,-0.5090,-0.4392,0.6865,-38.6412,-73.6336,23.8626,45.21,0
27044,-0.4941,-0.4844,0.6436,-24.0763,-63.4656,6.3053,45.21,0
27054,-0.4844,-0.5081,0.6355,2.2901,-55.6183,-13.5267,45.24,0
27064,-0.4224,-0.4731,0.6631,34.3817,-50.7634,-31.0076,45.18,0
27074,-0.3699,-0.4231,0.7192,60.6260,-48.4427,-38.9466,45.21,0
27084,-0.3428,-0.3516,0.7920,71.8779,-49.5420,-33.6794,45.21,0
27094,-0.3337,-0.2598,0.8521,66.4580,-51.0229,-18.3817,45.20,0
27104,-0.3416,-0.2463,0.8635,43.8779,-52.0153,1.2061,45.17,0
27114,-0.3923,-0.3184,0.8616,11.7252,-57.2519,17.9542,45.19,0
27124,-0.4373,-0.3394,0.8069,-15.2366,-61.9389,25.9847,45.19,0
27134,-0.4199,-0.3630,0.7710,-22.5191,-61.3893,22.1832,45.19,0
27144,-0.3894,-0.3909,0.7583,-15.8931,-57.8321,11.7863,45.22,0
27154,-0.3723,-0.3865,0.7556,0.3053,-50.8550,0.1069,45.20,0
27164,-0.3613,-0.3286,0.7764,18.6718,-44.5344,-9.9237,45.22,0
27174,-0.3582,-0.2896,0.7939,31.8473,-41.8168,-14.1679,45.20,0
27184,-0.3450,-0.2451,0.8374,32.3511,-45.3130,-10.2443,45.21,0
27194,-0.3293,-0.2126,0.8442,20.2595,-50.2137,0.8550,45.17,0
27204,-0.3306,-0.2480,0.8333,-2.1679,-54.9771,14.9771,45.21,0
27214,-0.3618,-0.3247,0.8113,-21.4504,-58.3817,22.6565,45.17,0
27224,-0.3696,-0.3831,0.7734,-27.3893,-58.4427,19.3282,45.19,0
27234,-0.3420,-0.4231,0.7642,-18.3969,-54.3817,5.7099,45.19,0
27244,-0.3176,-0.4485,0.7617,0.7328,-48.8244,-11.3893,45.20,0
27254,-0.2869,-0.4221,0.7812,23.4809,-45.1908,-24.6870,45.19,0
27264,-0.2441,-0.3740,0.8142,42.8092,-41.8779,-30.7481,45.19,0
27274,-0.2229,-0.3105,0.8672,51.5878,-40.3664,-28.5496,45.20,0
27284,-0.2456,-0.2400,0.8972,47.0382,-39.8779,-18.5649,45.20,0
27294,-0.2668,-0.2495,0.9050,29.9084,-40.5954,-7.7405,45.24,0
27304,-0.2957,-0.2607,0.8679,6.3511,-45.2061,2.3511,45.22,0
27314,-0.3025,-0.2998,0.8381,-14.9771,-49.7405,9.1298,45.22,0
27324,-0.2900,-0.3718,0.8235,-24.3053,-53.6336,8.8855,45.20,0
27334,-0.2329,-0.4209,0.8232,-19.4656,-53.9237,-0.5802,45.18,0
27344,-0.1890,-0.4465,0.8140,-3.5420,-47.7863,-12.3511,45.20,0
27354,-0.1819,-0.4268,0.8215,17.2824,-41.8321,-19.8015,45.17,0
27364,-0.1724,-0.3721,0.8713,36.9160,-39.7557,-21.2214,45.18,0
27374,-0.1611,-0.3162,0.9126,44.1221,-37.3740,-17.6031,45.22,0
27384,-0.1980,-0.2749,0.9292,38.5496,-34.1374,-11.5573,45.22,0
27394,-0.2253,-0.2395,0.9207,23.5420,-32.9008,-3.6031,45.20,0
27404,-0.2468,-0.2520,0.8845,1.5878,-34.4122,5.5573,45.24,0
27414,-0.2783,-0.3037,0.8406,-21.0534,-39.9389,12.8550,45.24,0
27424,-0.2642,-0.3950,0.7996,-33.7863,-47.2519,13.9389,45.19,0
27434,-0.2087,-0.4573,0.7671,-30.3053,-52.1679,8.0916,45.21,0
27444,-0.1882,-0.4697,0.7664,-9.6336,-46.6412,-3.8321,45.24,0
27454,-0.1768,-0.4602,0.7617,18.7481,-39.8931,-15.5420,45.21,0
27464,-0.1553,-0.4138,0.8145,45.7710,-38.1832,-24.2748,45.22,0
27474,-0.1138,-0.3586,0.8760,62.5038,-38.6260,-26.7481,45.21,0
27484,-0.0935,-0.2795,0.9402,65.3282,-36.4122,-23.6031,45.22,0
27494,-0.0991,-0.2241,0.9763,55.5420,-32.6260,-16.5496,45.20,0
27504,-0.1143,-0.1726,0.9731,34.4275,-31.2824,-5.7863,45.20,0
27514,-0.1436,-0.1980,0.9551,6.3817,-33.7710,6.2443,45.22,0
27524,-0.1763,-0.2732,0.8989,-20.9466,-41.0687,13.6947,45.19,0
27534,-0.1562,-0.3538,0.8413,-30.3969,-47.6641,11.5725,45.22,0
27544,-0.0974,-0.3972,0.8210,-21.0840,-49.0840,3.8473,45.23,0
27554,-0.0554,-0.4097,0.8162,1.1298,-44.1221,-6.5496,45.21,0
27564,-0.0510,-0.3804,0.8447,28.5802,-37.2824,-17.3282,45.20,0
27574,-0.0525,-0.3430,0.8870,50.9466,-30.0000,-25.9389,45.21,0
27584,-0.0471,-0.2820,0.9373,61.6794,-23.5267,-30.3511,45.19,0
27594,-0.0571,-0.2197,0.9412,60.0611,-18.6260,-30.2290,45.13,0
27604,-0.0759,-0.1746,0.9573,46.3359,-23.3893,-22.9466,45.16,0
27614,-0.0798,-0.1711,0.9534,25.4962,-29.6794,-9.8015,45.19,0
27624,-0.0950,-0.2012,0.9207,2.1832,-38.1221,2.8702,45.20,0
27634,-0.0923,-0.2251,0.8884,-14.8244,-44.1985,8.8855,45.19,0
27644,-0.0691,-0.2664,0.8789,-20.4733,-45.4656,7.9847,45.23,0
27654,-0.0439,-0.3386,0.8792,-16.2748,-46.0763,1.2977,45.18,0
27664,-0.0166,-0.3723,0.8679,-3.1908,-44.4885,-7.7405,45.24,0
27674,0.0156,-0.3865,0.8718,16.1985,-39.8779,-16.3053,45.19,0
27684,0.0259,-0.3594,0.8943,37.9389,-33.7252,-22.3359,45.19,0
27694,0.0010,-0.3152,0.9304,50.8397,-29.6336,-24.0611,45.17,0
27704,-0.0093,-0.2454,0.9453,54.1527,-29.5878,-22.5191,45.20,0
27714,0.0110,-0.2107,0.9644,47.2061,-32.0153,-17.5725,45.18,0
27724,0.0171,-0.1848,0.9734,32.6107,-33.8626,-8.4427,45.18,0
27734,0.0168,-0.1770,0.9641,14.7634,-34.0305,0.9618,45.18,0
27744,-0.0166,-0.2222,0.9368,-2.0305,-37.1298,7.0992,45.18,0
27754,-0.0227,-0.2542,0.8962,-11.3893,-41.2672,8.9466,45.23,0
27764,-0.0095,-0.2930,0.8604,-10.6412,-45.6947,6.1221,45.20,0
27774,-0.0015,-0.3191,0.8462,-0.5191,-47.4962,0.6412,45.21,0
27784,0.0276,-0.3191,0.8491,14.6565,-45.8931,-5.8321,45.20,0
27794,0.0356,-0.2905,0.8743,30.1221,-41.6183,-12.2901,45.21,0
27804,0.0361,-0.2454,0.9043,40.2748,-35.6336,-17.1450,45.22,0
27814,0.0281,-0.2114,0.9165,41.3893,-32.6565,-18.8702,45.18,0
27824,0.0305,-0.1853,0.9045,34.3664,-33.8321,-15.5420,45.20,0
27834,0.0464,-0.1953,0.9014,22.0916,-41.0076,-6.9924,45.19,0
27844,0.0825,-0.2195,0.8967,8.8397,-52.4427,3.6336,45.18,0
27854,0.1211,-0.2493,0.9041,2.9924,-57.2519,6.6565,45.20,0
27864,0.1240,-0.2749,0.9150,6.1527,-53.8626,0.9466,45.18,0
27874,0.1494,-0.2988,0.9092,17.8473,-47.6336,-12.1679,45.21,0
27884,0.1838,-0.2759,0.9341,34.6107,-38.9466,-27.0382,45.19,0
27894,0.2019,-0.2717,0.9282,51.5420,-33.0382,-36.7328,45.21,0
27904,0.2190,-0.2278,0.9695,62.4427,-31.7252,-35.3740,45.18,0
27914,0.2085,-0.1824,0.9927,63.9695,-32.6565,-27.6489,45.19,0
27924,0.1956,-0.1492,1.0193,54.9313,-32.7634,-18.0153,45.20,0
27934,0.1814,-0.1062,1.0330,40.9160,-32.4580,-9.3282,45.20,0
27944,0.1797,-0.1135,1.0234,22.0611,-32.2137,-0.8855,45.20,0
27954,0.1807,-0.1277,0.9934,2.8702,-33.6794,7.9695,45.17,0
27964,0.1543,-0.1414,0.9504,-9.0687,-34.7939,14.3359,45.22,0
27974,0.1279,-0.1919,0.9033,-12.7176,-35.5573,16.6565,45.19,0
27984,0.1116,-0.2297,0.8733,-9.6336,-38.9160,15.1603,45.22,0
27994,0.1147,-0.2285,0.8774,-1.8626,-44.2137,10.5649,45.22,0
28004,0.1562,-0.2158,0.8914,9.1908,-48.2748,4.2901,45.21,0
28014,0.2139,-0.1914,0.9260,16.7023,-47.8626,-0.9771,45.21,0
28024,0.2524,-0.1589,0.9614,19.5725,-42.6412,-3.8321,45.18,0
28034,0.2524,-0.1404,0.9729,17.3893,-35.6031,-3.4504,45.24,0
28044,0.2234,-0.1440,0.9600,10.4885,-31.5114,-1.2519,45.23,0
28054,0.2212,-0.1631,0.9275,2.1374,-33.9847,0.9924,45.21,0
28064,0.2395,-0.1619,0.8940,-2.7023,-39.0076,3.0076,45.19,0
28074,0.2305,-0.1785,0.8755,-0.9924,-41.5267,4.2290,45.19,0
28084,0.2256,-0.1963,0.8689,5.3282,-42.5954,2.6260,45.23,0
28094,0.2351,-0.1848,0.8694,13.0687,-43.2824,-3.0229,45.17,0
28104,0.2815,-0.1694,0.8894,21.0840,-42.0305,-10.7023,45.18,0
28114,0.3247,-0.1692,0.9229,27.2977,-38.9008,-15.5878,45.20,0
28124,0.3499,-0.1458,0.9441,30.5496,-36.3664,-16.0763,45.22,0
28134,0.3599,-0.1353,0.9719,29.1450,-33.0992,-14.2137,45.20,0
28144,0.3550,-0.1284,0.9702,24.0458,-31.5114,-11.2366,45.19,0
28154,0.3342,-0.1060,0.9744,17.7099,-31.1145,-7.3893,45.19,0
28164,0.3164,-0.1055,0.9519,10.6870,-32.1374,-3.5267,45.22,0
28174,0.3025,-0.1104,0.9431,4.8702,-33.0840,-0.7328,45.17,0
28184,0.3076,-0.1160,0.9333,0.6565,-34.2901,0.0763,45.19,0
28194,0.3337,-0.1404,0.9001,-1.6031,-35.7099,-0.5954,45.23,0
28204,0.3445,-0.1467,0.9146,-0.6107,-37.4351,-2.7328,45.19,0
28214,0.3621,-0.1909,0.9043,4.4733,-34.6565,-6.8244,45.18,0
28224,0.3633,-0.1885,0.8931,13.5420,-29.6183,-11.2977,45.18,0
28234,0.3513,-0.1892,0.8940,24.1374,-26.4733,-14.7939,45.21,0
28244,0.3462,-0.1570,0.9163,32.5954,-25.0992,-16.2443,45.19,0
28254,0.3474,-0.1133,0.9287,33.8626,-24.3664,-16.5191,45.18,0
28264,0.3442,-0.1001,0.9419,29.4962,-23.6336,-16.3511,45.19,0
28274,0.3362,-0.0959,0.9260,21.6183,-23.0992,-13.9847,45.19,0
28284,0.3406,-0.0950,0.9131,13.2061,-25.2824,-8.5954,45.22,0
28294,0.3589,-0.1077,0.8960,5.4351,-30.9618,-1.1298,45.20,0
28304,0.3748,-0.1174,0.8958,0.6107,-35.4046,5.0687,45.21,0
28314,0.3782,-0.1426,0.8916,-0.7176,-36.3664,5.9237,45.20,0
28324,0.3875,-0.1455,0.8972,3.8168,-34.1527,-0.5954,45.21,0
28334,0.4116,-0.1418,0.8984,12.0916,-29.8015,-9.3740,45.18,0
28344,0.4255,-0.1230,0.9163,19.8015,-24.6107,-16.5802,45.20,0
28354,0.4333,-0.1091,0.9148,24.0916,-22.0916,-19.0687,45.16,0
28364,0.4414,-0.0913,0.9209,24.3359,-20.0763,-16.2290,45.19,0
28374,0.4285,-0.0801,0.9138,20.7328,-18.9160,-11.4198,45.17,0
28384,0.4077,-0.0803,0.9060,14.7786,-19.7099,-6.1374,45.16,0
28394,0.4077,-0.1050,0.8999,8.4427,-23.1603,-2.1832,45.17,0
28404,0.4214,-0.1121,0.8733,5.1908,-25.8779,-0.4122,45.18,0
28414,0.4224,-0.1221,0.8611,9.0229,-26.3817,-2.7481,45.19,0
28424,0.4355,-0.1162,0.8821,16.6107,-25.7863,-7.5878,45.17,0
28434,0.4492,-0.1121,0.9016,23.0382,-22.3053,-12.3664,45.19,0
28444,0.4453,-0.0872,0.9165,26.1832,-19.1756,-15.3130,45.19,0
28454,0.4478,-0.0576,0.9194,24.8244,-18.8092,-14.3817,45.20,0
28464,0.4585,-0.0437,0.9292,18.9160,-20.2137,-10.1069,45.18,0
28474,0.4524,-0.0342,0.9255,10.2748,-21.9847,-4.0763,45.18,0
28484,0.4534,-0.0413,0.9155,-0.0763,-23.9542,2.8092,45.19,0
28494,0.4404,-0.0715,0.8923,-8.1374,-25.3130,7.6183,45.19,0
28504,0.4360,-0.0903,0.8660,-11.5878,-26.4427,8.7481,45.18,0
28514,0.4331,-0.1060,0.8398,-9.8168,-25.8779,6.9160,45.19,0
28524,0.4268,-0.1196,0.8232,-3.8473,-24.8855,3.1145,45.19,0
28534,0.4412,-0.1096,0.8162,4.9008,-24.3817,-0.7939,45.18,0
28544,0.4521,-0.1035,0.8286,12.4580,-23.8779,-3.9847,45.20,0
28554,0.4631,-0.0911,0.8440,16.7328,-23.2824,-5.6183,45.20,0
28564,0.4502,-0.0759,0.8518,17.1450,-22.6718,-6.7481,45.20,0
28574,0.4597,-0.0679,0.8508,13.8779,-23.7557,-6.8397,45.17,0
28584,0.4697,-0.0598,0.8479,8.8855,-26.0611,-4.3359,45.19,0
28594,0.4785,-0.0571,0.8320,3.2061,-29.0229,-0.0611,45.17,0
28604,0.5076,-0.0693,0.8201,-2.1985,-31.4809,4.8092,45.21,0
28614,0.5024,-0.0818,0.8118,-4.8397,-32.3359,7.2519,45.22,0
28624,0.5044,-0.0974,0.8115,-3.6336,-31.9695,6.2290,45.19,0
28634,0.5190,-0.0974,0.8184,0.9618,-30.7481,1.5115,45.17,0
28644,0.5222,-0.0930,0.8154,9.4351,-25.3282,-7.1756,45.16,0
28654,0.5122,-0.0928,0.8076,18.0305,-21.3435,-14.1221,45.17,0
28664,0.5200,-0.0903,0.8105,23.4962,-21.6031,-17.1756,45.16,0
28674,0.5381,-0.0684,0.8181,25.1298,-23.8015,-15.2061,45.18,0
28684,0.5476,-0.0522,0.8347,22.4427,-25.9542,-10.6870,45.22,0
28694,0.5381,-0.0488,0.8369,15.8626,-27.1450,-5.5878,45.17,0
28704,0.5383,-0.0469,0.8291,8.7023,-27.6947,-1.7863,45.18,0
28714,0.5469,-0.0449,0.8188,4.3053,-28.1679,-1.0076,45.18,0
28724,0.5613,-0.0557,0.8225,4.0611,-27.4198,-2.3206,45.19,0
28734,0.5686,-0.0586,0.8228,6.5496,-25.1603,-3.3893,45.19,0
28744,0.5488,-0.0635,0.8213,7.6794,-23.0382,-3.6183,45.18,0
28754,0.5413,-0.0547,0.8203,7.3130,-23.4198,-3.0992,45.14,0
28764,0.5442,-0.0544,0.8169,4.9924,-25.9847,-1.1908,45.20,0
28774,0.5471,-0.0537,0.7996,1.9542,-28.9466,1.4198,45.21,0
28784,0.5447,-0.0591,0.7859,-0.1832,-30.3969,4.0000,45.15,0
28794,0.5400,-0.0791,0.7734,-0.5954,-29.3588,4.1069,45.19,0
28804,0.5349,-0.0789,0.7676,1.4809,-27.4351,1.4809,45.21,0
28814,0.5376,-0.0688,0.7605,5.1298,-25.4046,-2.4275,45.19,0
28824,0.5544,-0.0645,0.7620,8.4580,-23.8168,-5.4351,45.19,0
28834,0.5830,-0.0542,0.7617,10.6870,-23.2214,-6.4885,45.21,0
28844,0.6135,-0.0742,0.7678,11.6489,-25.8168,-5.6031,45.16,0
28854,0.6304,-0.0676,0.7771,12.8092,-29.3435,-4.3817,45.20,0
28864,0.6426,-0.0598,0.7791,15.4046,-31.2519,-3.2977,45.18,0
28874,0.6482,-0.0386,0.7935,17.8015,-30.5344,-2.8092,45.21,0
28884,0.6348,-0.0232,0.8110,17.5114,-27.8321,-3.5573,45.20,0
28894,0.6245,-0.0178,0.8135,14.2443,-24.9771,-4.8550,45.17,0
28904,0.6113,-0.0195,0.7998,10.1221,-24.0000,-6.0611,45.17,0
28914,0.6011,-0.0303,0.7771,8.5344,-24.6260,-7.9084,45.19,0
28924,0.6111,-0.0286,0.7659,10.7328,-25.9695,-9.9847,45.21,0
28934,0.6301,-0.0310,0.7705,14.3664,-28.2595,-10.3206,45.17,0
28944,0.6387,-0.0120,0.7825,16.5344,-29.9542,-8.3664,45.18,0
28954,0.6438,-0.0063,0.7922,14.2137,-31.0076,-6.3817,45.21,0
28964,0.6609,-0.0049,0.7935,8.4427,-31.2061,-3.3435,45.17,0
28974,0.6755,-0.0239,0.7800,2.3206,-28.8397,-0.3664,45.21,0
28984,0.6611,-0.0388,0.7688,-1.4809,-26.4733,1.9542,45.17,0
28994,0.6428,-0.0566,0.7551,-3.3435,-25.8168,3.1298,45.20,0
29004,0.6289,-0.0781,0.7302,-4.2137,-26.8397,2.9313,45.14,0
29014,0.6304,-0.0754,0.7114,-2.2443,-29.3588,1.4962,45.17,0
29024,0.6472,-0.0696,0.7053,3.0229,-31.4198,-0.0611,45.20,0
29034,0.6685,-0.0579,0.7197,9.0382,-32.0611,-0.6260,45.19,0
29044,0.6677,-0.0437,0.7290,13.2672,-30.2290,-1.2519,45.22,0
29054,0.6660,-0.0300,0.7415,13.0687,-27.8779,-2.5191,45.17,0
29064,0.6780,-0.0225,0.7432,10.2901,-27.6794,-3.2366,45.19,0
29074,0.6863,-0.0156,0.7278,7.2366,-28.0153,-2.8702,45.17,0
29084,0.6887,-0.0315,0.7119,4.9313,-28.5038,-1.4962,45.19,0
29094,0.6877,-0.0320,0.6946,3.9695,-29.6794,-0.1527,45.19,0
29104,0.6865,-0.0376,0.6746,4.9771,-33.0687,1.0382,45.21,0
29114,0.6833,-0.0422,0.6597,8.6107,-35.1603,2.2901,45.20,0
29124,0.6804,-0.0376,0.6672,14.1985,-36.0611,0.6718,45.20,0
29134,0.7021,-0.0254,0.6758,18.5802,-34.7176,-3.2366,45.21,0
29144,0.7085,-0.0193,0.6877,21.5573,-31.2214,-8.2595,45.20,0
29154,0.7312,-0.0159,0.6938,22.7939,-27.8626,-11.3740,45.18,0
29164,0.7480,-0.0005,0.6982,21.2672,-27.8779,-10.1221,45.19,0
29174,0.7556,-0.0076,0.7014,17.9389,-30.7328,-5.6031,45.20,0
29184,0.7654,-0.0061,0.7034,14.3053,-34.4427,-0.8855,45.20,0
29194,0.7590,-0.0002,0.7080,12.7023,-35.0992,1.5573,45.17,0
29204,0.7576,-0.0129,0.7061,11.9542,-33.2977,0.2595,45.20,0
29214,0.7590,-0.0088,0.6980,12.2137,-30.3511,-2.6718,45.19,0
29224,0.7727,-0.0203,0.6953,12.9008,-27.4198,-5.3435,45.18,0
29234,0.7898,-0.0027,0.6819,13.6031,-25.4656,-6.1221,45.18,0
29244,0.7859,-0.0088,0.6792,14.2137,-24.2290,-5.4656,45.19,0
29254,0.7788,-0.0073,0.6826,15.2824,-23.5267,-4.7481,45.19,0
29264,0.7710,-0.0107,0.6838,15.2366,-23.9389,-3.7405,45.22,0
29274,0.7654,-0.0063,0.6721,13.7710,-25.4351,-2.3817,45.21,0
29284,0.7585,-0.0020,0.6538,12.4885,-28.5649,0.2443,45.19,0
29294,0.7588,-0.0063,0.6440,12.9466,-30.7328,2.6260,45.20,0
29304,0.7590,-0.0024,0.6521,13.8779,-30.1679,2.7481,45.18,0
29314,0.7617,0.0042,0.6516,14.1069,-28.2137,0.1374,45.17,0
29324,0.7720,0.0095,0.6472,13.5573,-25.9389,-2.9008,45.21,0
29334,0.7844,0.0078,0.6323,13.2977,-24.3817,-5.0687,45.18,0
29344,0.7947,0.0081,0.6318,14.9618,-24.8397,-5.2061,45.18,0
29354,0.7966,0.0120,0.6355,18.0153,-25.3435,-3.3588,45.18,0
29364,0.8179,0.0120,0.6223,20.2137,-25.9237,-1.9847,45.19,0
29374,0.8176,0.0364,0.6570,19.9542,-26.8397,-1.4809,45.21,0
29384,0.8416,0.0444,0.6660,18.2290,-24.0458,-1.6031,45.20,0
29394,0.8503,0.0554,0.6804,14.4122,-18.9466,-3.3130,45.17,0
29404,0.8440,0.0630,0.6689,10.7176,-15.5878,-5.4351,45.21,0
29414,0.8425,0.0464,0.6516,7.8168,-14.6260,-6.3511,45.18,0
29424,0.8560,0.0322,0.6465,7.5725,-13.1603,-5.4656,45.19,0
29434,0.8496,0.0161,0.6316,10.3206,-11.2672,-3.5878,45.19,0
29444,0.8291,0.0149,0.6331,12.3053,-9.5267,-3.4504,45.18,0
29454,0.8120,0.0303,0.6462,13.1756,-8.4885,-3.8168,45.17,0
29464,0.7974,0.0278,0.6392,11.0687,-8.3206,-3.6794,45.19,0
29474,0.8228,0.0332,0.6411,7.9084,-7.2824,-2.6260,45.20,0
29484,0.8110,0.0303,0.6208,3.5573,-7.6183,0.0763,45.18,0
29494,0.7991,0.0208,0.6016,1.3130,-7.9389,1.8473,45.22,0
29504,0.8003,0.0195,0.5979,1.3740,-9.9084,1.3435,45.18,0
29514,0.8130,0.0227,0.5977,3.1450,-11.0992,0.1069,45.19,0
29524,0.8242,0.0256,0.6226,5.0534,-9.9847,-2.1374,45.17,0
29534,0.8369,0.0303,0.6274,7.2061,-8.4275,-4.0611,45.21,0
29544,0.8486,0.0327,0.6272,8.2290,-6.5954,-4.5191,45.20,0
29554,0.8430,0.0415,0.6301,8.0458,-5.1298,-3.4962,45.16,0
29564,0.8496,0.0444,0.6184,6.5496,-4.6718,-1.4198,45.20,0
29574,0.8386,0.0522,0.6160,3.9084,-5.6641,0.5802,45.20,0
29584,0.8328,0.0518,0.6194,1.0229,-6.3664,2.1221,45.19,0
29594,0.8281,0.0481,0.6077,-0.8092,-6.2443,2.0611,45.20,0
29604,0.8386,0.0376,0.5908,-0.4122,-6.2443,1.7099,45.20,0
29614,0.8374,0.0366,0.5906,1.0840,-5.4504,1.5878,45.18,0
29624,0.8337,0.0432,0.5930,2.7328,-3.7252,0.5344,45.18,0
29634,0.8269,0.0388,0.6001,4.0000,-3.0992,-1.1298,45.17,0
29644,0.8330,0.0376,0.5947,4.6718,-3.0382,-2.0153,45.19,0
29654,0.8345,0.0300,0.6001,5.4962,-2.7176,-2.3206,45.19,0
29664,0.8474,0.0388,0.5884,6.4580,-2.5954,-2.1374,45.20,0
29674,0.8337,0.0486,0.5950,6.0916,-2.9313,-0.7328,45.21,0
29684,0.8203,0.0493,0.6067,4.0916,-2.8855,1.0382,45.23,0
29694,0.8142,0.0454,0.5996,0.9008,-3.9542,1.8473,45.21,0
29704,0.8301,0.0515,0.5955,-1.1603,-4.9924,0.8855,45.19,0
29714,0.8398,0.0530,0.5901,-0.7939,-2.5344,-1.2824,45.16,0
29724,0.8315,0.0410,0.5847,0.9160,-0.6718,-3.4351,45.17,0
29734,0.8401,0.0486,0.5913,1.1603,-1.1756,-3.9542,45.21,0
29744,0.8401,0.0432,0.6062,-0.5954,-1.8779,-3.2519,45.22,0
29754,0.8374,0.0320,0.5974,-2.5802,-1.8779,-1.1450,45.22,0
29764,0.8225,0.0193,0.5896,-3.4351,-2.2137,0.5344,45.22,0
29774,0.8242,0.0134,0.5818,-2.8244,-1.9695,0.9466,45.20,0
29784,0.8125,0.0181,0.5662,-0.8855,0.5802,-0.3206,45.19,0
29794,0.8220,0.0249,0.5691,1.4809,0.6565,-1.7252,45.18,0
29804,0.8306,0.0273,0.5820,3.4962,1.7099,-3.2977,45.20,0
29814,0.8152,0.0481,0.5898,5.6947,3.3588,-4.5191,45.17,0
29824,0.8271,0.0820,0.6938,6.3969,3.7252,-6.0153,45.18,1
29834,0.8474,0.0542,0.5867,3.9237,3.9695,-7.0992,45.21,1
29844,0.8333,0.0579,0.5889,0.9618,5.3130,-7.4504,45.15,1
29854,0.8328,0.0317,0.5845,-2.1374,3.5878,-5.2519,45.19,1
29864,0.8362,0.0298,0.5840,-4.3511,0.3817,-0.6565,45.17,1
29874,0.8406,0.0310,0.5801,-4.6870,-1.7252,3.3893,45.21,1
29884,0.8276,0.0276,0.5845,-2.7939,-1.7863,5.1908,45.22,1
29894,0.8237,0.0229,0.5928,0.0000,-0.3511,4.1221,45.19,1
29904,0.8206,0.0359,0.5950,2.9618,1.5420,1.1298,45.24,1
29914,0.8328,0.0359,0.5996,5.8015,3.4962,-2.6107,45.19,1
29924,0.8342,0.0391,0.6006,7.5725,4.8702,-4.9924,45.20,1
29934,0.8313,0.0420,0.6052,8.6870,5.3282,-5.3130,45.19,1
29944,0.8311,0.0396,0.5942,8.7634,3.6489,-4.0916,45.18,1
29954,0.8306,0.0422,0.5933,8.8092,1.8015,-1.4351,45.20,1
29964,0.8271,0.0432,0.5955,9.4504,1.0840,1.3435,45.19,1
29974,0.8047,0.0388,0.5952,9.9695,-0.4733,3.0229,45.20,1
29984,0.7942,0.0305,0.5823,9.5725,-2.3817,3.2824,45.20,1
29994,0.7986,0.0251,0.5610,9.8931,-3.1756,2.5496,45.19,1
30004,0.7998,0.0305,0.5603,11.6031,-3.4351,1.1450,45.20,1
30014,0.8179,0.0276,0.5669,14.5038,-2.9313,0.3969,45.19,1
30024,0.8201,0.0310,0.5605,17.9389,-2.0763,-0.4427,45.17,1
30034,0.8372,0.0486,0.5608,20.8397,-1.6794,-0.9466,45.19,0
30044,0.8311,0.0364,0.5950,21.6183,-0.3664,-1.4351,45.19,0
30054,0.8232,0.0620,0.5999,20.3359,1.8626,-1.7710,45.21,0
30064,0.8262,0.0769,0.5979,15.6031,2.3359,-1.4504,45.18,0
30074,0.8313,0.0891,0.5930,10.7328,1.1145,-0.6870,45.18,0
30084,0.7754,0.0310,0.7227,5.8779,4.3817,-1.0076,45.19,0
30094,0.9165,0.0073,0.5220,8.7939,-0.0763,2.5038,45.21,0
30104,0.8108,0.0557,0.6123,5.6183,-0.3359,0.3664,45.19,0
30114,0.8054,0.0596,0.5833,5.7710,-0.9924,-0.3359,45.20,0
30124,0.8193,0.0615,0.5815,6.4122,-1.8626,-0.8855,45.19,0
30134,0.8403,0.0781,0.5728,6.3206,-2.7176,-0.9924,45.17,0
30144,0.8423,0.0635,0.5698,6.0916,-2.1679,0.7634,45.21,0
30154,0.8425,0.0632,0.5745,7.0382,-0.3664,2.7023,45.21,0
30164,0.8284,0.0637,0.5723,7.3893,1.2977,3.4962,45.20,0
30174,0.8247,0.0662,0.5806,5.8931,2.7023,2.1374,45.18,0
30184,0.8262,0.0723,0.5923,4.1832,2.4275,-0.3817,45.20,0
30194,0.8311,0.0676,0.6013,3.0840,3.2519,-2.2595,45.17,0
30204,0.8257,0.0728,0.5906,2.1985,4.5344,-2.8550,45.21,0
30214,0.8191,0.0664,0.5908,1.0229,5.0382,-2.3359,45.18,0
30224,0.8269,0.0664,0.5928,-0.0916,4.3359,-0.6565,45.20,0
30234,0.8276,0.0647,0.5850,-0.2290,4.3053,1.0992,45.18,0
30244,0.8279,0.0476,0.5854,0.4427,4.1527,1.9237,45.19,0
30254,0.8135,0.0461,0.5798,2.2443,4.8092,1.8473,45.19,0
30264,0.8267,0.0510,0.5913,4.7939,5.5573,0.0458,45.17,0
30274,0.8335,0.0581,0.5938,7.1450,7.0840,-2.8550,45.19,0
30284,0.8269,0.0679,0.6062,8.6870,8.1985,-5.2519,45.21,0
30294,0.8345,0.0664,0.6152,8.9771,7.7099,-6.5191,45.21,0
30304,0.8340,0.0615,0.6187,7.4504,7.4351,-5.9237,45.21,0
30314,0.8328,0.0549,0.6204,5.6489,8.3053,-4.1527,45.15,0
30324,0.8298,0.0620,0.6157,3.8015,8.9618,-1.1450,45.19,0
30334,0.8296,0.0559,0.6111,1.7405,8.2443,1.9847,45.19,0
30344,0.8215,0.0740,0.6167,-0.0916,8.0153,3.6183,45.19,0
30354,0.8015,0.0674,0.6077,-1.8168,8.0000,3.7863,45.22,0
30364,0.8044,0.0632,0.6060,-3.3588,7.3435,3.2061,45.18,0
30374,0.8044,0.0576,0.5891,-4.4122,6.0458,2.4580,45.18,0
30384,0.8152,0.0491,0.5857,-2.5954,6.2748,1.9695,45.15,0
30394,0.8140,0.0435,0.5957,1.6489,7.7557,1.2519,45.16,0
30404,0.8252,0.0425,0.6030,5.7099,8.8702,-0.4885,45.16,0
30414,0.8286,0.0452,0.6189,8.5344,9.2214,-2.4885,45.18,0
30424,0.8362,0.0435,0.6238,9.9542,9.3282,-3.2672,45.16,0
30434,0.8372,0.0520,0.6335,10.1221,9.6336,-1.8473,45.17,0
30444,0.8430,0.0706,0.6338,8.9618,10.6412,0.5496,45.16,0
30454,0.8306,0.0889,0.6392,7.5267,11.6641,2.6107,45.19,0
30464,0.8076,0.0906,0.6538,5.7710,13.0840,2.7328,45.18,0
30474,0.8022,0.1008,0.6550,4.2748,14.1985,0.0305,45.20,0
30484,0.7991,0.0933,0.6499,3.1145,15.0229,-3.8168,45.17,0
30494,0.8069,0.0813,0.6431,2.5191,15.1145,-5.7099,45.16,0
30504,0.8340,0.0706,0.6355,3.0229,13.0229,-4.7023,45.19,0
30514,0.8354,0.0547,0.6445,3.6183,12.3053,-1.3893,45.19,0
30524,0.8267,0.0508,0.6543,3.8931,13.4046,2.2137,45.20,0
30534,0.8276,0.0454,0.6494,3.4809,13.9084,4.0611,45.17,0
30544,0.8135,0.0549,0.6592,2.6718,15.6641,5.0840,45.16,0
30554,0.7966,0.0701,0.6670,3.2824,18.2137,4.8244,45.18,0
30564,0.7886,0.0845,0.6694,3.9542,19.8168,2.5954,45.20,0
30574,0.7917,0.0989,0.6763,4.9924,20.8397,-0.8550,45.17,0
30584,0.8013,0.1147,0.6851,5.6489,23.2672,-3.9847,45.18,0
30594,0.8000,0.1038,0.6882,5.0840,24.8855,-7.2672,45.21,0
30604,0.8018,0.0911,0.6819,3.1145,24.7939,-9.0687,45.22,0
30614,0.8250,0.0757,0.6646,1.6489,23.6183,-6.4122,45.19,0
30624,0.8374,0.0632,0.6624,0.6412,23.4504,-1.1145,45.19,0
30634,0.8123,0.0627,0.6843,-1.0534,24.6260,3.8779,45.17,0
30644,0.7920,0.0635,0.6833,-2.9466,26.3053,4.8702,45.18,0
30654,0.7964,0.0706,0.6819,-3.9695,27.3740,2.0916,45.14,0
30664,0.8059,0.0732,0.6846,-2.2748,29.9695,-1.8168,45.17,0
30674,0.8220,0.0747,0.7034,1.0076,31.6489,-4.8550,45.20,0
30684,0.8472,0.0728,0.7219,3.0840,32.8855,-5.2366,45.19,0
30694,0.8477,0.0830,0.7512,3.0687,34.2137,-3.0687,45.14,0
30704,0.8345,0.0752,0.7676,0.3053,36.6565,-1.0992,45.19,0
30714,0.8311,0.0762,0.7664,-2.9924,39.3893,0.0153,45.16,0
30724,0.8198,0.0833,0.7637,-5.2672,44.1374,0.6565,45.21,0
30734,0.8052,0.0811,0.7654,-6.3359,46.8855,-0.0611,45.17,0
30744,0.8137,0.0911,0.7864,-6.5649,48.5802,-1.0687,45.16,0
30754,0.8191,0.1016,0.8013,-6.6870,51.0229,-2.5802,45.17,0
30764,0.8203,0.0886,0.8235,-7.8321,53.0687,-3.7863,45.17,0
30774,0.8120,0.0945,0.8184,-11.0229,55.0382,-1.8168,45.17,0
30784,0.7969,0.0911,0.8203,-15.1908,56.0916,2.2901,45.18,0
30794,0.7698,0.0947,0.8262,-18.9466,58.2595,7.0382,45.19,0
30804,0.7434,0.0952,0.8318,-22.5954,61.0840,9.2214,45.17,0
30814,0.7251,0.1040,0.8291,-25.7099,64.5649,7.8321,45.20,0
30824,0.7144,0.1013,0.8130,-27.6183,67.3588,4.5649,45.21,0
30834,0.7212,0.0952,0.8113,-28.4886,67.6489,1.6947,45.15,0
30844,0.7183,0.0808,0.8081,-28.5496,67.2214,1.2519,45.18,0
30854,0.6843,0.0295,0.8098,-28.9160,67.5725,2.0763,45.18,0
30864,0.6707,0.0005,0.8044,-30.1069,67.1145,3.0534,45.19,0
30874,0.6814,-0.0303,0.7844,-30.6718,65.7405,4.8092,45.19,0
30884,0.6738,-0.0334,0.7839,-27.2061,65.1145,6.2443,45.20,0
30894,0.6726,-0.0154,0.7832,-19.7099,67.8779,5.7099,45.17,0
30904,0.6467,0.0044,0.8140,-12.3511,73.2214,3.2977,45.21,0
30914,0.6099,0.0537,0.8320,-8.0153,76.4275,-0.7023,45.20,0
30924,0.6184,0.0759,0.8416,-8.4275,76.2137,-3.9847,45.20,0
30934,0.6313,0.0537,0.8647,-14.3664,73.2214,-2.3969,45.19,0
30944,0.6416,0.0298,0.8704,-21.6794,72.3664,2.9008,45.18,0
30954,0.6216,0.0078,0.8696,-28.0305,74.3664,7.3893,45.18,0
30964,0.5928,-0.0134,0.8408,-32.0916,76.5802,9.3893,45.18,0
30974,0.5674,-0.0222,0.8169,-32.4733,77.6641,9.6794,45.18,0
30984,0.5459,-0.0271,0.8025,-28.5954,77.7557,9.0229,45.18,0
30994,0.5393,-0.0024,0.8186,-21.9389,78.2137,6.9313,45.16,0
31004,0.5327,0.0125,0.8391,-14.9618,79.0229,3.6794,45.19,0
31014,0.5159,0.0264,0.8672,-9.5420,82.3206,-1.3130,45.16,0
31024,0.5046,0.0186,0.8940,-8.4427,85.7863,-5.9695,45.17,0
31034,0.4839,0.0063,0.8828,-11.4046,87.6489,-9.0992,45.18,0
31044,0.4724,-0.0098,0.8967,-16.7481,86.9160,-6.7939,45.16,0
31054,0.4578,-0.0222,0.8699,-22.7634,84.3664,-0.2748,45.21,0
31064,0.4414,-0.0303,0.8657,-28.2443,81.9847,6.8244,45.22,0
31074,0.4133,-0.0596,0.8633,-32.9160,81.3893,12.5649,45.18,0
31084,0.3962,-0.0674,0.8630,-34.9313,79.4351,13.9084,45.18,0
31094,0.3901,-0.0957,0.8621,-33.1145,79.7863,11.5725,45.19,0
31104,0.3818,-0.1042,0.8621,-26.9466,79.8015,7.3740,45.21,0
31114,0.3875,-0.0916,0.8713,-17.2672,81.8015,2.0611,45.17,0
31124,0.3716,-0.0671,0.8823,-7.8931,86.2748,-2.2901,45.19,0
31134,0.3423,-0.0679,0.9014,-3.5115,87.8473,-4.6870,45.19,0
31144,0.3411,-0.0308,0.9263,-4.5954,87.2214,-3.9542,45.12,0
31154,0.3359,-0.0032,0.9412,-10.3053,88.1985,-1.5115,45.20,0
31164,0.2949,-0.0200,0.9387,-19.3893,90.0611,1.2214,45.22,0
31174,0.2622,-0.0337,0.9163,-30.8244,87.8321,4.3511,45.18,0
31184,0.2695,-0.0615,0.9045,-37.4504,83.3893,7.4809,45.17,0
31194,0.2769,-0.0708,0.8970,-37.7099,82.0458,7.5878,45.18,0
31204,0.2769,-0.1189,0.9067,-33.2672,84.4885,2.3206,45.18,0
31214,0.2869,-0.1514,0.9092,-26.1832,88.2443,-5.0992,45.15,0
31224,0.2849,-0.1392,0.9236,-17.6336,91.0840,-8.4885,45.14,0
31234,0.2451,-0.1360,0.9402,-11.9695,94.8092,-5.9084,45.17,0
31244,0.2048,-0.1270,0.9500,-13.6336,95.8321,0.1985,45.18,0
31254,0.1716,-0.1157,0.9453,-22.6107,95.4657,6.3206,45.19,0
31264,0.1289,-0.1218,0.9238,-32.3969,94.7786,9.7099,45.20,0
31274,0.1108,-0.1128,0.8911,-38.4427,92.7481,11.1145,45.14,0
31284,0.0979,-0.1091,0.8892,-39.2214,92.5038,10.5954,45.17,0
31294,0.0764,-0.1396,0.8826,-36.8702,93.2672,7.2519,45.17,0
31304,0.0679,-0.1726,0.8826,-32.8855,93.7099,2.3206,45.18,0
31314,0.0635,-0.1985,0.8667,-27.9084,92.1832,-1.1298,45.17,0
31324,0.0676,-0.2039,0.8845,-23.0229,90.8855,0.4275,45.17,0
31334,0.0649,-0.1851,0.8843,-19.5114,89.7405,6.3511,45.18,0
31344,0.0322,-0.1565,0.8936,-20.9924,91.5115,11.5878,45.16,0
31354,-0.0127,-0.1528,0.8994,-27.1756,94.4580,14.1221,45.17,0
31364,-0.0522,-0.1501,0.8740,-34.1527,97.0076,11.4809,45.21,0
31374,-0.0742,-0.1555,0.8528,-35.7405,98.8855,4.4885,45.19,0
31384,-0.0830,-0.1953,0.8245,-30.6870,94.8244,-3.4351,45.14,0
31394,-0.0403,-0.2429,0.8347,-22.6412,88.5649,-5.4046,45.19,0
31404,-0.0261,-0.2539,0.8555,-15.8626,86.3969,-1.3893,45.16,0
31414,-0.0532,-0.2607,0.8630,-15.0840,86.5802,3.7405,45.16,0
31424,-0.0857,-0.2375,0.8704,-18.6107,86.1985,10.1679,45.19,0
31434,-0.1335,-0.1997,0.8508,-24.5954,87.5115,15.5878,45.15,0
31444,-0.1755,-0.1909,0.8401,-31.2824,88.9618,17.4504,45.18,0
31454,-0.1948,-0.1643,0.8284,-35.2672,89.8931,15.6336,45.17,0
31464,-0.2129,-0.1565,0.8127,-35.1908,88.1221,11.4351,45.17,0
31474,-0.1865,-0.2024,0.8201,-33.2824,82.4580,9.0687,45.19,0
31484,-0.1438,-0.2124,0.8333,-32.4885,77.4809,13.5420,45.16,0
31494,-0.1580,-0.2349,0.8293,-34.3969,77.5420,19.3130,45.16,0
31504,-0.2058,-0.2551,0.8298,-37.6794,81.6794,23.3435,45.18,0
31514,-0.2407,-0.2725,0.8108,-40.7023,83.4198,23.3282,45.17,0
31524,-0.2620,-0.2620,0.7871,-41.1145,85.3130,20.2595,45.17,0
31534,-0.2849,-0.2676,0.7793,-37.4351,88.3359,17.0382,45.18,0
31544,-0.3093,-0.2632,0.7678,-30.3511,89.3588,10.8092,45.17,0
31554,-0.3193,-0.2507,0.7659,-22.7023,89.5267,4.0153,45.17,0
31564,-0.3289,-0.2761,0.7659,-17.0687,86.7634,-0.4427,45.18,0
31574,-0.3096,-0.2942,0.7727,-17.2366,83.3893,-0.7481,45.16,0
31584,-0.3030,-0.3271,0.7673,-21.7710,79.4657,3.3893,45.17,0
31594,-0.3047,-0.3308,0.7512,-27.2672,74.8092,10.5344,45.20,0
31604,-0.3157,-0.3032,0.7444,-32.2748,74.1069,19.6183,45.17,0
31614,-0.3701,-0.2852,0.7419,-38.4427,77.6336,27.0229,45.17,0
31624,-0.4126,-0.2996,0.7307,-45.5878,79.6489,28.3817,45.16,0
31634,-0.4324,-0.2920,0.7156,-48.1069,80.3511,23.8168,45.15,0
31644,-0.4380,-0.2871,0.6858,-41.8931,81.4809,16.2748,45.20,0
31654,-0.4534,-0.3389,0.6719,-33.3740,80.4733,11.5878,45.19,0
31664,-0.4541,-0.3748,0.6521,-26.5191,77.5725,10.4733,45.17,0
31674,-0.4629,-0.3601,0.6614,-22.7634,74.0763,13.8015,45.19,0
31684,-0.4661,-0.3682,0.6707,-22.7481,73.2672,18.2748,45.18,0
31694,-0.4773,-0.3469,0.6597,-24.6412,74.9008,19.1450,45.19,0
31704,-0.5005,-0.3279,0.6448,-26.4733,78.2290,19.0687,45.14,0
31714,-0.5371,-0.3298,0.6201,-25.9847,80.4580,16.5954,45.17,0
31724,-0.5859,-0.2747,0.5845,-19.2061,83.2061,9.8931,45.15,0
31734,-0.6018,-0.2683,0.5752,-9.2672,82.9313,2.3359,45.16,0
31744,-0.5916,-0.2979,0.5850,-1.5267,83.3130,-5.7405,45.19,0
31754,-0.5850,-0.3188,0.6033,0.1527,86.9618,-14.2595,45.17,0
31764,-0.5686,-0.3779,0.5938,-2.5954,86.6565,-19.5878,45.19,0
31774,-0.5432,-0.4055,0.5796,-6.3817,80.9618,-18.4275,45.15,0
31784,-0.5002,-0.3994,0.5647,-8.7023,75.1450,-10.2595,45.19,0
31794,-0.5098,-0.3862,0.5730,-10.6718,73.5725,0.6718,45.17,0
31804,-0.5593,-0.3655,0.5857,-13.7252,77.4351,9.3130,45.18,0
31814,-0.5908,-0.3340,0.5820,-17.0687,82.6870,9.9542,45.20,0
31824,-0.6086,-0.3098,0.5747,-19.3130,88.6870,4.7176,45.19,0
31834,-0.6206,-0.3008,0.5542,-19.7405,92.6260,-3.1298,45.16,0
31844,-0.6294,-0.3157,0.5154,-20.0305,93.2672,-9.1145,45.18,0
31854,-0.6343,-0.3516,0.4932,-23.5267,91.0382,-9.2366,45.17,0
31864,-0.6396,-0.4180,0.4783,-30.5191,87.4809,-5.2824,45.19,0
31874,-0.6238,-0.4524,0.4546,-36.4122,85.1603,0.4275,45.18,0
31884,-0.6360,-0.4585,0.4312,-38.8855,86.9618,6.5191,45.16,0
31894,-0.6523,-0.4644,0.4241,-39.2061,90.7786,10.9924,45.20,0
31904,-0.6790,-0.4636,0.3992,-38.4275,92.7023,14.3359,45.18,0
31914,-0.7288,-0.4648,0.3660,-35.0992,90.9160,16.3359,45.19,0
31924,-0.7642,-0.4355,0.3232,-27.9084,84.5038,16.4733,45.18,0
31934,-0.7708,-0.4360,0.3071,-19.6183,77.4504,15.0534,45.17,0
31944,-0.7761,-0.4409,0.3062,-15.4962,74.5038,12.9618,45.17,0
31954,-0.8062,-0.4375,0.2620,-16.8855,72.0611,11.4351,45.17,0
31964,-0.8323,-0.4551,0.2312,-21.1908,64.4427,12.7023,45.19,0
31974,-0.8379,-0.4485,0.2048,-22.7176,56.0611,15.1603,45.16,0
31984,-0.8279,-0.4380,0.1951,-21.8779,50.5496,17.2214,45.15,0
31994,-0.8379,-0.4270,0.1938,-19.3435,48.6870,17.1145,45.15,0
32004,-0.8579,-0.4143,0.1711,-13.1603,47.6947,14.4427,45.21,0
32014,-0.8882,-0.4043,0.1721,-5.7099,46.1679,10.4427,45.19,0
32024,-0.9089,-0.4094,0.1628,0.5191,38.3664,6.3053,45.18,0
32034,-0.9087,-0.4075,0.1555,3.7863,29.1756,3.8168,45.17,0
32044,-0.8909,-0.4104,0.1611,5.9237,19.6641,1.7557,45.17,0
32054,-0.8601,-0.4060,0.1724,8.7176,14.0305,-0.5344,45.19,0
32064,-0.8372,-0.4019,0.2065,12.2901,11.6947,-3.3130,45.19,0
32074,-0.8223,-0.3931,0.2427,15.1450,11.1145,-5.7252,45.19,0
32084,-0.8030,-0.4048,0.2764,15.8779,10.3359,-6.7634,45.19,0
32094,-0.7981,-0.4092,0.2991,14.9924,9.1756,-5.7710,45.19,0
32104,-0.7891,-0.4033,0.3137,13.3282,6.2290,-4.2748,45.18,0
32114,-0.7764,-0.4143,0.3396,10.6107,3.4809,-2.4122,45.19,0
32124,-0.7593,-0.4146,0.3455,7.2061,1.0687,0.5038,45.15,0
32134,-0.7605,-0.4097,0.3354,5.4198,-1.1145,4.0305,45.16,0
32144,-0.7690,-0.4172,0.3376,4.9008,-2.3511,7.2977,45.17,0
32154,-0.7834,-0.4290,0.3369,4.8092,-2.5344,8.2137,45.15,0
32164,-0.8005,-0.4204,0.3433,5.0992,-0.8855,7.4656,45.19,0
32174,-0.8032,-0.4148,0.3494,6.2595,-0.2137,5.2824,45.15,0
32184,-0.8003,-0.3938,0.3611,6.7481,0.6260,3.0840,45.19,0
32194,-0.7839,-0.3774,0.3562,6.1374,0.4733,2.3359,45.21,0
32204,-0.7673,-0.3721,0.3496,4.7634,-0.0611,3.1298,45.18,0
32214,-0.7837,-0.3396,0.3467,4.1374,1.1756,4.5038,45.19,0
32224,-0.8123,-0.3521,0.3416,2.2901,0.9771,5.2061,45.18,0
32234,-0.8208,-0.3694,0.3323,-0.2443,-2.1527,4.9008,45.20,0
32244,-0.8242,-0.3767,0.3140,-0.4733,-3.9389,4.1832,45.17,0
32254,-0.7961,-0.4097,0.3225,2.3206,-5.1908,1.8015,45.17,0
32264,-0.7764,-0.4075,0.3337,6.7786,-1.5115,-1.7710,45.19,0
32274,-0.7798,-0.4060,0.3335,11.0229,2.0916,-4.8855,45.18,0
32284,-0.7773,-0.3794,0.3513,12.9771,3.0840,-6.2748,45.15,0
32294,-0.7803,-0.3586,0.3547,10.8397,2.3359,-5.8321,45.18,0
32304,-0.7842,-0.3757,0.3591,5.9389,-0.3053,-4.5496,45.17,0
32314,-0.7883,-0.3755,0.3447,0.6565,-3.1450,-1.6336,45.18,0
32324,-0.7954,-0.3762,0.3374,-3.0992,-6.2137,2.4427,45.19,0
32334,-0.7961,-0.3877,0.3359,-5.2824,-9.0534,5.1450,45.17,0
32344,-0.7820,-0.3813,0.3416,-6.1527,-9.2824,5.1298,45.18,0
32354,-0.7852,-0.3918,0.3354,-6.3664,-7.6947,3.0534,45.15,0
32364,-0.7737,-0.3892,0.3333,-5.7099,-3.8626,-0.7023,45.18,0
32374,-0.7686,-0.4150,0.3320,-4.0458,-0.3664,-5.1298,45.19,0
32384,-0.7700,-0.4353,0.3350,-0.9160,0.8855,-7.7252,45.18,0
32394,-0.7642,-0.4397,0.3420,3.8015,-2.5191,-5.8931,45.21,0
32404,-0.7605,-0.4185,0.3560,8.3359,-6.4733,-1.4809,45.18,0
32414,-0.7537,-0.4060,0.3691,9.8931,-8.4427,2.1069,45.18,0
32424,-0.7610,-0.4021,0.3833,7.3588,-9.6183,3.9542,45.19,0
32434,-0.7705,-0.3916,0.3699,3.1145,-9.7099,4.3969,45.16,0
32444,-0.7791,-0.3840,0.3499,-0.5191,-9.2061,4.0916,45.18,0
32454,-0.7820,-0.3950,0.3337,-2.2290,-8.3053,4.0916,45.18,0
32464,-0.7937,-0.4080,0.3267,-1.8779,-8.3359,4.4733,45.19,0
32474,-0.7966,-0.4231,0.3262,0.2901,-8.9466,4.2748,45.17,0
32484,-0.7952,-0.4275,0.3428,3.0076,-9.4198,2.4427,45.19,0
32494,-0.7930,-0.4290,0.3389,5.8168,-9.8779,0.2748,45.18,0
32504,-0.7761,-0.4263,0.3521,8.8397,-9.0229,-1.6489,45.18,0
32514,-0.7649,-0.4243,0.3574,12.3053,-7.9847,-3.7099,45.17,0
32524,-0.7598,-0.4043,0.3657,15.0992,-6.6718,-5.0534,45.19,0
32534,-0.7659,-0.3860,0.3777,14.4885,-6.1374,-3.8473,45.17,0
32544,-0.7751,-0.3892,0.3757,10.7481,-7.0687,-1.5115,45.18,0
32554,-0.7854,-0.3848,0.3674,5.2519,-8.7481,1.2519,45.20,0
32564,-0.7915,-0.3826,0.3608,0.1221,-10.2901,3.3130,45.21,0
32574,-0.7920,-0.3923,0.3445,-4.1221,-11.1145,4.5802,45.21,0
32584,-0.7930,-0.3953,0.3262,-5.6794,-11.9542,5.7405,45.17,0
32594,-0.8020,-0.4053,0.3135,-4.2137,-13.8473,5.6031,45.19,0
32604,-0.7988,-0.3970,0.3196,-0.0611,-16.0458,4.2443,45.22,0
32614,-0.7903,-0.4043,0.3308,4.2443,-17.1756,2.4275,45.20,0
32624,-0.7810,-0.3982,0.3433,7.4046,-16.5649,0.0000,45.18,0
32634,-0.7766,-0.3997,0.3572,7.9847,-15.1603,-1.7557,45.19,0
32644,-0.7710,-0.4082,0.3604,7.1908,-16.5496,-2.0305,45.24,0
32654,-0.7546,-0.4006,0.3635,6.4427,-17.4504,-1.2214,45.24,0
32664,-0.7644,-0.3906,0.3557,6.7939,-17.1603,-0.2290,45.21,0
32674,-0.7698,-0.3762,0.3574,7.1450,-17.6947,0.7176,45.22,0
32684,-0.7808,-0.3574,0.3486,6.6718,-18.7328,1.0076,45.22,0
32694,-0.7986,-0.3423,0.3594,6.0611,-19.8321,0.4427,45.20,0
32704,-0.8113,-0.3555,0.3665,5.7252,-22.6565,-0.9771,45.20,0
32714,-0.7793,-0.3940,0.3792,5.1756,-27.0534,-3.8931,45.19,0
32724,-0.7322,-0.3933,0.3901,5.4656,-28.6718,-6.1832,45.19,0
32734,-0.7112,-0.4033,0.4097,7.2214,-26.6870,-6.9160,45.22,0
32744,-0.7107,-0.4094,0.4192,8.7328,-23.3893,-7.0076,45.23,0
32754,-0.7200,-0.4026,0.4246,7.9237,-20.5344,-6.6412,45.20,0
32764,-0.7390,-0.3848,0.4202,3.6489,-18.9924,-3.3588,45.20,0
32774,-0.7754,-0.3616,0.3940,-3.0840,-21.2977,2.4733,45.22,0
32784,-0.8005,-0.3416,0.3623,-12.0916,-26.4580,9.5115,45.21,0
32794,-0.8135,-0.3618,0.3506,-20.7786,-33.1603,15.1145,45.21,0
32804,-0.7974,-0.4131,0.3354,-24.9618,-39.6641,15.7863,45.22,0
32814,-0.7668,-0.4744,0.3472,-22.2595,-42.2901,10.7023,45.20,0
32824,-0.7166,-0.5166,0.3613,-11.2366,-40.3053,2.5496,45.19,0
32834,-0.6860,-0.5208,0.3958,4.1374,-34.4275,-5.3130,45.23,0
32844,-0.6846,-0.4980,0.4375,18.5954,-28.0763,-10.4275,45.22,0
32854,-0.6934,-0.4656,0.4565,25.2824,-25.4198,-10.6870,45.24,0
32864,-0.7007,-0.4138,0.4763,25.5725,-25.1603,-7.0840,45.22,0
32874,-0.7200,-0.3552,0.4626,21.0687,-26.8244,-1.7405,45.21,0
32884,-0.7488,-0.3235,0.4578,12.3511,-30.4886,4.8092,45.23,0
32894,-0.7690,-0.2998,0.4346,1.3435,-36.5649,11.1603,45.23,0
32904,-0.7632,-0.3289,0.4241,-7.5878,-43.3435,13.6489,45.22,0
32914,-0.7104,-0.3936,0.4373,-10.5344,-47.9237,8.1832,45.19,0
32924,-0.6616,-0.4224,0.4668,-5.1756,-43.8626,-2.4733,45.21,0
32934,-0.6345,-0.4475,0.4961,5.8168,-36.4122,-13.6183,45.26,0
32944,-0.6150,-0.4578,0.5300,17.8015,-31.4046,-21.6336,45.23,0
32954,-0.6079,-0.4302,0.5613,26.4580,-29.3130,-25.1603,45.22,0
32964,-0.6099,-0.4084,0.5796,28.5038,-30.1374,-24.3969,45.21,0
32974,-0.5952,-0.3921,0.5835,23.3893,-33.9389,-18.0458,45.20,0
32984,-0.5886,-0.3682,0.5652,12.3817,-38.3969,-6.7634,45.19,0
32994,-0.6204,-0.3486,0.5356,-1.0229,-42.1221,7.8015,45.23,0
33004,-0.6592,-0.3611,0.5127,-10.1221,-44.4275,16.5649,45.22,0
33014,-0.6873,-0.3784,0.4985,-13.8779,-44.3664,17.8473,45.22,0
33024,-0.6807,-0.4158,0.4978,-12.4275,-44.1527,12.4122,45.19,0
33034,-0.6448,-0.4573,0.5071,-6.3053,-43.8626,3.4962,45.22,0
33044,-0.6052,-0.4646,0.5452,2.6107,-41.0687,-4.4427,45.24,0
33054,-0.5781,-0.4553,0.5701,11.0076,-37.4656,-7.2977,45.24,0
33064,-0.5789,-0.4653,0.6025,15.3893,-34.6718,-5.2061,45.22,0
33074,-0.6008,-0.4390,0.6130,15.1450,-33.0229,0.2901,45.25,0
33084,-0.6265,-0.4165,0.6057,11.9847,-32.8702,4.6870,45.21,0
33094,-0.6399,-0.3899,0.5859,5.9237,-34.0916,8.5649,45.19,0
33104,-0.6641,-0.3435,0.5520,-1.8779,-35.8168,12.8702,45.19,0
33114,-0.6743,-0.3086,0.5425,-10.4733,-39.0382,17.1908,45.21,0
33124,-0.6665,-0.3523,0.5444,-18.4733,-42.1221,19.1298,45.25,0
33134,-0.6548,-0.4209,0.5469,-22.7328,-43.5115,15.1603,45.21,0
33144,-0.6252,-0.4697,0.5493,-19.8321,-42.4427,6.1679,45.19,0
33154,-0.5881,-0.5103,0.5522,-7.4656,-40.0305,-3.9695,45.24,0
33164,-0.5393,-0.5256,0.5725,7.5878,-39.2366,-8.5344,45.20,0
33174,-0.5325,-0.4941,0.5969,21.3893,-36.2901,-6.9924,45.21,0
33184,-0.5479,-0.4536,0.6194,29.6183,-34.4122,-3.4351,45.23,0
33194,-0.5830,-0.4075,0.6323,30.3053,-33.3893,-0.3511,45.23,0
33204,-0.6013,-0.3525,0.6394,24.7939,-32.9771,1.9084,45.23,0
33214,-0.6145,-0.3015,0.6230,15.9084,-33.2366,2.9924,45.22,0
33224,-0.5938,-0.3118,0.6250,5.7863,-37.2366,4.7634,45.22,0
33234,-0.5491,-0.3455,0.6277,-2.6565,-42.7786,6.1679,45.22,0
33244,-0.5276,-0.3855,0.6069,-4.6107,-44.0305,5.0840,45.19,0
33254,-0.5222,-0.4238,0.6125,0.7634,-42.0916,2.2595,45.19,0
33264,-0.5344,-0.4543,0.6228,9.6183,-40.9008,-2.2137,45.23,0
33274,-0.5342,-0.4514,0.6443,18.3053,-40.9618,-6.0000,45.24,0
33284,-0.5198,-0.4294,0.6638,24.3359,-40.9008,-7.8015,45.22,0
33294,-0.5029,-0.3857,0.6890,26.8550,-39.8321,-7.5267,45.21,0
33304,-0.5020,-0.3284,0.6968,24.7786,-37.3588,-4.3511,45.19,0
33314,-0.5256,-0.2847,0.6887,16.3053,-36.5038,1.0840,45.21,0
33324,-0.5515,-0.2729,0.6653,4.4885,-37.6489,5.4656,45.22,0
33334,-0.5637,-0.3118,0.6536,-6.5038,-41.7557,7.1145,45.21,0
33344,-0.5239,-0.3687,0.6267,-11.5878,-46.7939,4.8397,45.24,0
33354,-0.4724,-0.4065,0.6338,-8.5954,-50.3053,2.2748,45.21,0
33364,-0.4382,-0.4287,0.6602,0.2595,-49.2366,1.2824,45.22,0
33374,-0.4277,-0.4258,0.7056,10.2443,-45.2061,-1.0229,45.22,0
33384,-0.4285,-0.4072,0.7368,17.1450,-39.9084,-4.1069,45.21,0
33394,-0.4485,-0.3845,0.7517,19.5267,-35.9237,-6.0305,45.19,0
33404,-0.4541,-0.3550,0.7393,16.8702,-35.1450,-5.4809,45.19,0
33414,-0.4673,-0.3267,0.7178,11.1603,-37.4504,-2.6260,45.21,0
33424,-0.4834,-0.3069,0.6926,4.0916,-40.7634,3.5115,45.21,0
33434,-0.4929,-0.3145,0.6836,-2.6412,-44.9618,8.7023,45.20,0
33444,-0.4785,-0.3679,0.6934,-6.1527,-48.7481,8.3817,45.20,0
33454,-0.4314,-0.3909,0.7017,-4.5954,-49.0382,1.7099,45.20,0
33464,-0.3843,-0.4297,0.7139,2.5802,-46.9160,-7.1756,45.21,0
33474,-0.3608,-0.4385,0.7241,14.5802,-42.7481,-13.9542,45.19,0
33484,-0.3601,-0.4204,0.7456,24.8244,-39.0076,-15.2366,45.20,0
33494,-0.3806,-0.3953,0.7556,30.1527,-36.6718,-13.8321,45.21,0
33504,-0.3955,-0.3760,0.7622,29.1145,-36.7634,-9.6794,45.20,0
33514,-0.4250,-0.3450,0.7581,23.2977,-39.1450,-4.7939,45.20,0
33524,-0.4426,-0.3423,0.7424,15.5573,-42.0916,-1.5878,45.24,0
33534,-0.4392,-0.3313,0.7334,9.4351,-44.9924,-1.0229,45.22,0
33544,-0.4189,-0.3494,0.7278,5.3435,-46.0305,-2.0153,45.20,0
33554,-0.3694,-0.4065,0.7429,4.5496,-49.1603,-4.9160,45.21,0
33564,-0.3086,-0.4082,0.7480,8.4733,-48.5191,-7.7405,45.21,0
33574,-0.3132,-0.4011,0.7627,16.0000,-42.9924,-9.6794,45.21,0
33584,-0.3374,-0.3855,0.7729,23.1908,-40.2595,-10.5038,45.24,0
33594,-0.3469,-0.3569,0.7844,25.4198,-41.4198,-9.0840,45.22,0
33604,-0.3655,-0.3252,0.7952,22.5038,-43.6489,-7.3130,45.17,0
33614,-0.3667,-0.2939,0.7891,16.6565,-45.6336,-5.1908,45.20,0
33624,-0.3618,-0.2776,0.7808,8.6107,-48.0305,-1.6031,45.20,0
33634,-0.3254,-0.2876,0.7705,-1.8473,-52.1374,4.0305,45.22,0
33644,-0.2866,-0.3467,0.7830,-10.4427,-55.7099,7.8015,45.20,0
33654,-0.2478,-0.4094,0.7917,-12.0458,-57.1450,6.7023,45.21,0
33664,-0.2297,-0.4321,0.7876,-4.2748,-52.7328,0.0611,45.18,0
33674,-0.2361,-0.4429,0.8010,9.2366,-46.5954,-7.6794,45.20,0
33684,-0.2349,-0.4092,0.8181,21.9542,-41.6183,-13.1145,45.22,0
33694,-0.2615,-0.3572,0.8250,29.4046,-38.0153,-16.3206,45.19,0
33704,-0.2922,-0.3162,0.8274,29.7405,-38.4580,-17.3435,45.18,0
33714,-0.2971,-0.2671,0.8198,23.1908,-42.3053,-14.1374,45.23,0
33724,-0.2844,-0.2478,0.8159,13.0840,-47.1603,-9.5420,45.23,0
33734,-0.2427,-0.2568,0.8088,3.2061,-51.4809,-5.9847,45.21,0
33744,-0.2090,-0.2646,0.8154,-4.0458,-52.2290,-4.6412,45.18,0
33754,-0.1550,-0.3176,0.8406,-8.6260,-54.4275,-4.7481,45.15,0
33764,-0.1001,-0.3477,0.8628,-9.6183,-56.4580,-3.4656,45.17,0
33774,-0.0901,-0.3855,0.8777,-6.9618,-56.1374,-1.2519,45.21,0
33784,-0.1211,-0.4089,0.8831,-1.1756,-53.4198,-0.3969,45.17,0
33794,-0.1501,-0.4075,0.8892,5.4504,-51.9542,-1.5115,45.19,0
33804,-0.1643,-0.3914,0.8838,12.1221,-49.6947,-4.9618,45.18,0
33814,-0.1743,-0.3638,0.8816,17.2061,-44.9771,-10.8092,45.21,0
33824,-0.1719,-0.3408,0.8828,20.1527,-39.2061,-16.9160,45.23,0
33834,-0.1440,-0.3440,0.8894,21.7405,-38.3206,-21.9237,45.23,0
33844,-0.0935,-0.3279,0.8945,22.7939,-40.7786,-21.7099,45.20,0
33854,-0.0520,-0.3379,0.9314,21.3740,-44.5344,-15.5878,45.19,0
33864,-0.0500,-0.3516,0.9541,16.4427,-47.1298,-6.6412,45.18,0
33874,-0.0674,-0.3428,0.9629,9.9847,-45.3893,-0.4427,45.20,0
33884,-0.1023,-0.3369,0.9651,2.6107,-41.0534,2.8855,45.20,0
33894,-0.1321,-0.3223,0.9385,-5.6336,-37.0076,4.1527,45.17,0
33904,-0.1599,-0.3164,0.9143,-14.3664,-35.5420,4.7481,45.18,0
33914,-0.1726,-0.3464,0.8716,-20.9313,-36.3359,5.0382,45.22,0
33924,-0.1377,-0.4163,0.8464,-22.5038,-42.3359,5.1298,45.21,0
33934,-0.1150,-0.4214,0.8276,-15.6794,-46.6718,6.0305,45.19,0
33944,-0.1064,-0.4302,0.8308,-2.6107,-47.2061,4.5954,45.20,0
33954,-0.1106,-0.4224,0.8467,9.2061,-46.1985,0.8702,45.15,0
33964,-0.0933,-0.3979,0.8503,18.0153,-43.8779,-3.7405,45.20,0
33974,-0.0947,-0.3613,0.8701,22.9924,-39.5420,-7.4962,45.22,0
33984,-0.1074,-0.3354,0.8779,23.9542,-35.4351,-10.4122,45.25,0
33994,-0.1067,-0.3108,0.8738,20.7939,-33.5725,-12.1221,45.20,0
34004,-0.0964,-0.2969,0.8828,14.7786,-33.7557,-13.1450,45.23,0
34014,-0.0725,-0.3196,0.8662,7.9542,-38.4580,-12.5344,45.20,0
34024,-0.0164,-0.3416,0.8643,3.2977,-47.2061,-7.0534,45.20,0
34034,0.0208,-0.3682,0.8755,2.5496,-52.7481,-0.5954,45.23,0
34044,0.0452,-0.3962,0.8857,5.7863,-54.0458,0.9160,45.18,0
34054,0.0481,-0.3909,0.9070,13.2366,-49.7099,-3.6336,45.21,0
34064,0.0427,-0.3665,0.9099,21.4809,-41.5267,-11.5573,45.17,0
34074,0.0334,-0.3381,0.9124,26.9008,-34.5344,-18.9618,45.20,0
34084,0.0215,-0.3237,0.9006,28.7176,-31.5878,-22.7023,45.23,0
34094,0.0398,-0.2976,0.8855,28.8855,-33.6794,-21.2061,45.22,0
34104,0.0356,-0.2715,0.8655,27.3740,-36.9618,-13.4809,45.19,0
34114,0.0144,-0.2705,0.8730,22.9924,-41.2214,-6.0763,45.21,0
34124,0.0195,-0.2778,0.8792,16.8397,-46.4122,-1.0992,45.22,0
34134,0.0720,-0.2771,0.9001,10.5496,-50.3359,-0.5038,45.18,0
34144,0.1128,-0.2864,0.9150,5.8779,-50.0000,-1.4351,45.20,0
34154,0.1296,-0.2932,0.9202,3.4198,-45.7405,-3.0076,45.19,0
34164,0.1101,-0.2908,0.9189,1.9084,-39.2061,-4.9160,45.20,0
34174,0.0679,-0.2930,0.8960,-0.1374,-33.7710,-6.9008,45.22,0
34184,0.0266,-0.3210,0.8569,-3.7099,-37.2672,-7.5725,45.22,0
34194,0.0701,-0.3430,0.8296,-4.3206,-50.0305,-2.8550,45.21,0
34204,0.1223,-0.3325,0.8269,-0.7786,-58.1832,3.1756,45.21,0
34214,0.1294,-0.3501,0.8542,5.6031,-57.3130,3.8015,45.22,0
34224,0.1445,-0.3513,0.8867,12.0458,-52.4885,-1.3588,45.19,0
34234,0.1460,-0.3369,0.8975,16.3359,-46.0458,-9.2519,45.19,0
34244,0.1389,-0.3364,0.8933,19.0992,-40.1221,-16.9008,45.23,0
34254,0.1316,-0.3103,0.8762,22.4580,-35.1603,-23.2214,45.21,0
34264,0.1311,-0.3069,0.8503,26.0305,-32.9160,-26.7481,45.22,0
34274,0.1216,-0.2920,0.8394,28.7328,-37.3130,-24.9160,45.21,0
34284,0.1492,-0.2661,0.8442,29.2519,-47.1298,-17.8168,45.21,0
34294,0.1794,-0.2524,0.8806,26.4122,-54.1221,-10.5802,45.21,0
34304,0.2048,-0.2683,0.8989,19.9695,-55.6183,-6.8244,45.22,0
34314,0.2217,-0.2844,0.9045,14.0305,-54.4275,-7.3282,45.17,0
34324,0.2239,-0.2949,0.8916,13.2824,-51.1298,-12.3359,45.17,0
34334,0.2141,-0.3013,0.8772,18.3359,-44.9008,-20.5954,45.22,0
34344,0.2185,-0.2886,0.8564,28.6565,-38.0763,-29.9237,45.20,0
34354,0.2234,-0.2795,0.8564,37.9542,-37.6489,-34.6718,45.18,0
34364,0.2566,-0.2593,0.8594,42.4275,-43.1450,-32.1069,45.19,0
34374,0.2954,-0.2383,0.8821,40.4733,-47.4504,-23.6336,45.19,0
34384,0.2979,-0.2378,0.9067,34.7176,-49.2519,-15.7252,45.22,0
34394,0.3147,-0.2529,0.9143,28.6565,-50.8702,-11.4046,45.20,0
34404,0.3367,-0.2649,0.9116,26.7634,-50.2137,-12.0000,45.19,0
34414,0.3560,-0.2903,0.9197,31.0992,-45.6947,-17.6489,45.22,0
34424,0.3877,-0.2832,0.9490,40.2595,-40.1985,-25.0534,45.24,0
34434,0.4045,-0.2634,0.9573,49.4046,-33.3435,-30.6260,45.21,0
34444,0.3796,-0.2354,0.9829,54.0916,-30.6107,-31.9084,45.23,0
34454,0.3989,-0.1711,0.9976,53.0076,-32.6412,-27.3740,45.22,0
34464,0.4023,-0.1628,1.0010,44.3664,-32.2901,-19.4504,45.23,0
34474,0.3657,-0.1367,0.9861,31.7252,-30.8550,-11.0534,45.21,0
34484,0.3293,-0.1401,0.9656,17.9847,-31.6183,-3.2977,45.20,0
34494,0.3337,-0.1721,0.9370,4.0153,-37.3588,3.3740,45.22,0
34504,0.3491,-0.1667,0.9153,-3.4351,-40.7023,8.3664,45.16,0
34514,0.3435,-0.1995,0.8972,-5.6336,-39.6489,10.1527,45.19,0
34524,0.3164,-0.2087,0.8818,-4.1374,-36.9008,8.9008,45.20,0
34534,0.2861,-0.2107,0.8604,-0.9160,-34.9008,5.1603,45.20,0
34544,0.2847,-0.2065,0.8467,2.4580,-37.5878,0.6565,45.19,0
34554,0.3147,-0.1768,0.8369,5.0840,-42.0916,0.1221,45.21,0
34564,0.3462,-0.1594,0.8438,4.4885,-46.7023,3.0840,45.22,0
34574,0.3645,-0.1697,0.8467,-0.4580,-49.6794,8.9313,45.20,0
34584,0.3555,-0.2139,0.8298,-6.2137,-50.9160,12.3817,45.21,0
34594,0.3525,-0.2466,0.7969,-6.2748,-49.6641,8.4275,45.20,0
34604,0.3420,-0.2412,0.7712,3.0992,-43.7710,-3.3435,45.23,0
34614,0.3425,-0.2505,0.7512,18.4122,-39.1908,-18.9924,45.23,0
34624,0.3884,-0.2185,0.7485,34.8702,-41.6031,-30.6718,45.20,0
34634,0.4558,-0.1782,0.7874,48.7023,-47.0840,-32.9466,45.24,0
34644,0.5266,-0.1428,0.8528,54.5191,-50.5038,-27.8321,45.21,0
34654,0.5432,-0.1023,0.8843,49.3282,-50.1679,-18.0305,45.18,0
34664,0.5127,-0.0715,0.9102,37.2672,-47.8626,-9.5573,45.19,0
34674,0.4907,-0.0564,0.8970,21.1603,-45.2824,-3.4351,45.22,0
34684,0.4653,-0.0566,0.8718,2.3359,-45.0992,-0.2290,45.19,0
34694,0.4514,-0.0708,0.8303,-12.9618,-45.6183,1.0840,45.20,0
34704,0.4636,-0.1152,0.7712,-19.6489,-48.5038,0.5344,45.22,0
34714,0.4917,-0.1436,0.7571,-17.0076,-55.2672,1.2824,45.20,0
34724,0.5247,-0.1423,0.7717,-7.6947,-59.4962,1.6183,45.22,0
34734,0.5269,-0.1528,0.7986,3.2214,-57.7863,-1.2977,45.20,0
34744,0.5188,-0.1516,0.8120,9.0229,-53.6489,-6.0153,45.22,0
34754,0.5127,-0.1445,0.8091,9.7710,-48.1069,-10.9466,45.20,0
34764,0.5051,-0.1340,0.8020,8.0000,-43.6183,-14.5191,45.21,0
34774,0.4968,-0.1338,0.7720,4.9924,-41.4962,-16.9924,45.21,0
34784,0.5305,-0.1484,0.7468,3.0687,-44.3817,-16.3359,45.19,0
34794,0.5515,-0.1528,0.7673,2.5496,-48.4427,-12.9771,45.20,0
34804,0.5884,-0.1599,0.7590,2.9924,-51.7099,-9.4962,45.19,0
34814,0.5908,-0.1772,0.7793,3.0382,-54.8702,-7.8321,45.21,0
34824,0.6191,-0.1733,0.7705,4.4580,-53.8779,-8.3359,45.19,0
34834,0.6169,-0.1572,0.7693,6.6107,-49.4962,-11.1756,45.24,0
34844,0.6121,-0.1482,0.7649,8.6412,-45.2366,-14.4885,45.23,0
34854,0.6130,-0.1511,0.7444,8.7023,-42.4122,-17.0534,45.21,0
34864,0.6133,-0.1484,0.7217,8.2901,-43.8626,-16.5954,45.20,0
34874,0.6318,-0.1370,0.7156,8.5802,-47.2824,-12.4733,45.21,0
34884,0.6292,-0.1584,0.7117,8.4427,-49.5420,-9.6183,45.21,0
34894,0.6362,-0.1360,0.7095,11.3588,-50.8550,-10.5038,45.22,0
34904,0.6489,-0.1489,0.7209,15.6183,-49.1603,-16.4275,45.19,0
34914,0.6829,-0.1567,0.7327,20.0458,-46.9008,-24.0916,45.22,0
34924,0.7222,-0.1450,0.7339,26.3969,-45.0534,-30.0611,45.23,0
34934,0.7517,-0.1357,0.7527,33.3588,-41.3893,-32.4122,45.22,0
34944,0.7388,-0.1167,0.7590,37.7405,-40.2748,-32.5191,45.23,0
34954,0.7590,-0.0977,0.7769,37.4046,-43.0382,-28.8397,45.19,0
34964,0.7761,-0.0798,0.7817,33.4198,-44.9466,-22.3359,45.18,0
34974,0.7476,-0.0610,0.7874,28.0611,-43.4504,-17.0840,45.20,0
34984,0.7415,-0.0635,0.7864,21.1450,-38.6718,-15.1145,45.20,0
34994,0.7026,-0.0488,0.7576,12.5038,-36.6870,-13.4351,45.23,0
35004,0.6868,-0.0552,0.7283,4.7634,-36.6412,-12.2595,45.19,0
35014,0.6951,-0.0840,0.6924,-0.0916,-39.1908,-12.6412,45.22,0
35024,0.7266,-0.1011,0.6729,-0.0458,-44.7481,-11.7405,45.22,0
35034,0.7781,-0.1331,0.6755,5.3588,-51.3588,-7.6183,45.23,0
35044,0.8179,-0.1401,0.7061,13.4962,-52.1221,-4.1985,45.21,0
35054,0.8103,-0.1316,0.7139,23.7710,-46.2137,-5.6794,45.22,0
35064,0.7717,-0.1357,0.7170,32.8397,-40.4122,-10.2901,45.19,0
35074,0.7822,-0.1157,0.7170,37.7557,-38.3511,-14.3206,45.21,0
35084,0.7927,-0.0898,0.7107,38.6107,-37.6031,-15.9084,45.23,0
35094,0.8003,-0.0698,0.7048,37.9084,-38.5802,-14.1069,45.22,0
35104,0.7971,-0.0435,0.7180,36.0153,-39.8168,-9.5115,45.21,0
35114,0.7710,-0.0310,0.7144,31.0992,-42.7634,-5.0992,45.22,0
35124,0.7629,-0.0234,0.7012,22.2748,-48.6260,-1.1450,45.21,0
35134,0.7620,-0.0032,0.6841,14.8092,-54.1374,1.6641,45.20,0
35144,0.7830,-0.0405,0.6477,10.0153,-58.8550,2.8702,45.20,0
35154,0.8232,-0.0493,0.6294,8.9313,-60.1679,3.1603,45.22,0
35164,0.8252,-0.0459,0.6257,13.2672,-56.4122,2.1374,45.19,0
35174,0.8315,-0.0366,0.6560,18.6260,-48.1527,-2.4580,45.19,0
35184,0.8298,-0.0095,0.6689,21.5114,-37.1450,-10.1679,45.22,0
35194,0.8335,-0.0039,0.6577,19.4504,-30.8702,-16.6565,45.17,0
35204,0.8562,0.0056,0.6421,14.5038,-31.3130,-16.0000,45.23,0
35214,0.8682,0.0105,0.6335,9.8015,-35.3588,-9.0534,45.23,0
35224,0.8569,0.0061,0.6365,3.1756,-42.0305,-0.4427,45.22,0
35234,0.8513,-0.0081,0.6423,-4.9924,-45.9084,6.0153,45.23,0
35244,0.8689,-0.0042,0.6125,-10.9466,-46.1527,8.7939,45.23,0
35254,0.8794,-0.0149,0.5938,-13.9847,-43.0687,8.9160,45.21,0
35264,0.8872,-0.0347,0.5637,-13.8168,-36.1985,8.1985,45.22,0
35274,0.8740,-0.0410,0.5447,-8.8244,-29.1298,6.0153,45.21,0
35284,0.8867,-0.0510,0.5713,0.2137,-24.0153,0.0153,45.21,0
35294,0.9019,-0.0464,0.5876,8.8244,-19.6794,-6.5191,45.24,0
35304,0.9011,-0.0476,0.6030,14.0611,-17.1908,-11.1450,45.21,0
35314,0.9133,-0.0312,0.6162,15.0229,-18.0611,-11.7863,45.20,0
35324,0.9233,-0.0229,0.6257,12.1832,-19.9084,-7.9542,45.23,0
35334,0.9219,-0.0083,0.6143,7.5420,-18.8092,-1.8931,45.22,0
35344,0.8994,0.0010,0.6204,2.3511,-15.9847,3.4809,45.22,0
35354,0.8726,-0.0046,0.6089,-2.4885,-12.2443,6.2595,45.19,0
35364,0.8479,-0.0115,0.5823,-5.9542,-9.5267,6.1069,45.26,0
35374,0.8533,-0.0317,0.5740,-7.3435,-10.0458,3.9695,45.20,0
35384,0.8733,-0.0422,0.5588,-6.3817,-9.3435,3.0840,45.24,0
35394,0.8772,-0.0374,0.5454,-3.7863,-8.4580,2.8092,45.19,0
35404,0.8674,-0.0615,0.5696,-1.5267,-8.8855,2.8092,45.20,0
35414,0.8726,-0.0627,0.5525,0.8855,-9.2672,2.4885,45.17,0
35424,0.8904,-0.0579,0.5618,3.8626,-7.8931,0.3817,45.24,0
35434,0.8853,-0.0488,0.5698,7.8321,-3.0687,-3.2214,45.21,0
35444,0.8711,-0.0381,0.5732,11.2977,1.7252,-6.1832,45.19,0
35454,0.8755,-0.0242,0.5789,12.2290,2.4580,-6.7176,45.20,0
35464,0.8787,-0.0100,0.5686,9.9695,1.6031,-5.0840,45.22,0
35474,0.8730,-0.0081,0.5798,5.0992,0.0000,-2.2290,45.19,0
35484,0.8733,-0.0029,0.5715,0.1221,-1.6794,1.0687,45.22,0
35494,0.8679,-0.0242,0.5564,-3.7863,-4.0458,3.0840,45.19,0
35504,0.8711,-0.0288,0.5493,-6.2290,-4.7328,4.0153,45.22,0
35514,1.0151,-0.0762,0.4490,-5.5878,-4.4733,3.4962,45.17,1
35524,0.8713,-0.0227,0.5588,-4.6107,4.5191,-0.4122,45.20,1
35534,0.8662,-0.0193,0.5588,-3.4198,8.7634,-3.0687,45.20,1
35544,0.8726,-0.0144,0.5330,-3.9847,6.9160,-3.1603,45.22,1
35554,0.8604,-0.0242,0.5405,-5.7405,3.5115,-1.1450,45.21,1
35564,0.8408,-0.0371,0.5374,-6.8397,0.6718,1.0534,45.21,1
35574,0.8528,-0.0459,0.5300,-7.6794,-1.5725,1.9847,45.22,1
35584,0.8606,-0.0574,0.5188,-6.0153,-1.3893,1.6489,45.20,1
35594,0.8721,-0.0540,0.5308,-0.7939,1.2977,0.2901,45.24,1
35604,0.8840,-0.0432,0.5627,5.8321,6.2290,-3.9389,45.21,1
35614,0.8936,-0.0247,0.5776,8.9160,11.5573,-8.1527,45.20,1
35624,0.8955,-0.0222,0.5959,8.5649,16.0153,-10.5038,45.21,1
35634,0.8987,-0.0083,0.5879,6.0000,17.9847,-9.7863,45.24,1
35644,0.8894,-0.0198,0.5754,2.5191,16.6260,-6.8855,45.20,1
35654,0.8691,-0.0361,0.5657,-0.2137,13.7099,-1.9084,45.18,1
35664,0.8513,-0.0427,0.5535,-1.3740,10.1069,2.9313,45.23,1
35674,0.8369,-0.0388,0.5420,-1.2061,6.9160,6.6718,45.19,1
35684,0.8291,-0.0330,0.5383,0.1832,4.9160,8.4275,45.20,1
35694,0.8342,-0.0256,0.5342,1.6641,5.1756,6.7786,45.20,1
35704,0.8235,-0.0261,0.5337,3.9695,7.1756,3.0229,45.20,1
35714,0.8184,-0.0425,0.5374,6.1679,8.4427,-0.7176,45.22,1
35724,0.8252,-0.0376,0.5388,7.8321,7.6947,-3.2672,45.21,1
35734,0.8376,-0.0344,0.5378,8.6260,4.4427,-3.8931,45.21,1
35744,0.8474,-0.0444,0.5398,8.6412,2.3664,-2.6870,45.20,1
35754,0.8464,-0.0513,0.5364,8.1832,1.7099,-0.2748,45.23,1
35764,0.8474,-0.0308,0.5425,6.9771,1.7710,2.3206,45.18,1
35774,0.8372,-0.0417,0.5464,5.8473,1.8015,3.9542,45.26,1
35784,0.8416,-0.0337,0.5518,5.6489,2.4885,3.9084,45.22,1
35794,0.8481,-0.0381,0.5396,6.9313,3.4046,2.1069,45.23,1
35804,0.8657,-0.0298,0.5405,9.2366,4.8550,-1.3588,45.17,0
35814,0.7664,0.0212,0.7283,10.5954,12.4427,-6.2443,45.18,0
35824,0.9556,-0.0840,0.4844,19.3893,9.7863,-4.2443,45.21,0
35834,0.8406,-0.0178,0.5891,16.8092,8.3817,-6.1221,45.20,0
35844,0.8430,-0.0054,0.5820,13.4046,2.7176,-2.9618,45.20,0
35854,0.8533,-0.0022,0.5850,8.0611,-0.2901,1.2214,45.22,0
35864,0.8567,-0.0149,0.5815,2.3817,1.0076,4.1679,45.22,0
35874,0.8328,-0.0146,0.5703,-1.4656,3.5267,5.8626,45.22,0
35884,0.8132,-0.0215,0.5618,-4.0153,5.3740,5.3435,45.22,0
35894,0.8264,-0.0215,0.5369,-5.3282,5.3740,2.9618,45.19,0
35904,0.8242,-0.0315,0.5369,-4.7786,6.3359,-0.2901,45.22,0
35914,0.8469,-0.0420,0.5337,-0.2901,6.2901,-1.8626,45.20,0
35924,0.8567,-0.0393,0.5347,4.4580,6.7481,-2.8244,45.16,0
35934,0.8425,-0.0464,0.5474,8.3053,5.7405,-2.9618,45.24,0
35944,0.8416,-0.0364,0.5544,10.2901,4.9618,-2.2595,45.22,0
35954,0.8501,-0.0225,0.5632,9.8931,5.3588,-2.1679,45.21,0
35964,0.8477,-0.0225,0.5811,8.3969,7.4351,-2.6565,45.20,0
35974,0.8359,-0.0286,0.5759,6.2901,8.7786,-3.1298,45.23,0
35984,0.8440,-0.0222,0.5715,4.6718,8.7786,-2.3969,45.19,0
35994,0.8572,-0.0090,0.5642,3.4962,6.1527,-0.7481,45.23,0
36004,0.8608,-0.0093,0.5820,2.8550,5.0992,1.6947,45.20,0
36014,0.8635,-0.0046,0.5977,2.9924,7.0687,3.0687,45.19,0
36024,0.8496,-0.0098,0.6047,2.9160,9.6641,1.7252,45.21,0
36034,0.8579,-0.0237,0.6047,2.9924,11.1603,-0.5191,45.20,0
36044,0.8582,-0.0381,0.5969,3.4504,11.7405,-2.3511,45.20,0
36054,0.8662,-0.0537,0.5952,4.9618,10.7634,-1.6183,45.24,0
36064,0.8943,-0.0435,0.5991,6.9618,10.9160,-0.1679,45.22,0
36074,0.8818,-0.0452,0.6121,9.6183,12.7634,0.4580,45.22,0
36084,0.8618,-0.0537,0.6333,12.3969,15.2519,-0.2748,45.22,0
36094,0.8613,-0.0703,0.6362,15.0076,17.1756,-3.3282,45.19,0
36104,0.8770,-0.0679,0.6494,19.4351,17.1603,-8.2748,45.23,0
36114,0.9058,-0.0457,0.6741,26.1527,18.7939,-13.2672,45.21,0
36124,0.9436,-0.0161,0.7195,32.8702,21.7252,-17.1603,45.19,0
36134,0.9778,0.0044,0.7476,35.1145,28.5496,-17.2519,45.17,0
36144,0.9722,0.0332,0.7705,32.3664,35.7557,-13.4656,45.18,0
36154,0.9512,0.0488,0.7954,25.5267,41.0382,-8.0916,45.18,0
36164,0.9248,0.0496,0.8003,15.9695,44.7786,-4.1679,45.20,0
36174,0.9075,0.0566,0.7959,6.9466,49.7099,-2.6412,45.17,0
36184,0.8843,0.0422,0.7712,0.3206,53.7710,-2.4427,45.20,0
36194,0.8679,0.0193,0.7527,-3.8321,55.6031,-0.6870,45.20,0
36204,0.8860,0.0066,0.7319,-5.6031,52.1679,4.9008,45.21,0
36214,0.8799,0.0017,0.7405,-4.9466,50.7939,11.8321,45.21,0
36224,0.8564,-0.0059,0.7429,-3.2214,53.1603,14.7481,45.21,0
36234,0.8447,-0.0193,0.7441,-2.1985,55.5725,13.5267,45.18,0
36244,0.8328,-0.0200,0.7485,-1.6031,60.2901,12.1985,45.17,0
36254,0.8027,-0.0254,0.7305,-0.6412,64.1679,10.5649,45.17,0
36264,0.7705,-0.0339,0.7317,-0.0763,65.2672,9.8473,45.18,0
36274,0.7693,-0.0237,0.7249,0.3511,64.0305,11.0840,45.17,0
36284,0.7720,0.0027,0.7324,0.2443,61.4656,13.0382,45.21,0
36294,0.7795,0.0178,0.7517,-0.8397,60.1832,15.2214,45.21,0
36304,0.7666,0.0173,0.7646,-3.8015,62.0763,15.2977,45.17,0
36314,0.7529,0.0305,0.7739,-7.0534,66.1374,12.7023,45.19,0
36324,0.7634,0.0281,0.7639,-8.8397,69.1145,8.6107,45.19,0
36334,0.7600,0.0396,0.7620,-10.0458,72.6412,4.8855,45.20,0
36344,0.7285,0.0386,0.7612,-11.8626,77.0076,2.9160,45.19,0
36354,0.7092,0.0266,0.7627,-15.6031,80.2137,1.5573,45.17,0
36364,0.6929,0.0332,0.7410,-20.6870,82.9008,0.8550,45.19,0
36374,0.6741,0.0364,0.7246,-23.7405,84.0763,-0.9160,45.19,0
36384,0.6792,0.0293,0.7314,-24.5191,80.9771,-4.2290,45.19,0
36394,0.7207,0.0203,0.7510,-22.6260,76.8702,-6.6565,45.18,0
36404,0.7610,0.0227,0.7837,-19.8473,77.7099,-5.6641,45.20,0
36414,0.7466,0.0432,0.8076,-18.7481,82.9466,-3.0687,45.20,0
36424,0.7068,0.0515,0.8330,-22.1069,86.5038,0.5649,45.19,0
36434,0.6714,0.0547,0.8354,-30.5802,88.1527,5.3282,45.20,0
36444,0.6465,0.0618,0.8206,-41.0076,89.1145,10.0611,45.18,0
36454,0.6160,0.0386,0.8162,-49.1603,90.8092,12.0458,45.22,0
36464,0.5879,0.0227,0.7966,-52.0000,93.4809,11.0229,45.19,0
36474,0.5688,-0.0107,0.7922,-49.7252,94.8702,7.2977,45.21,0
36484,0.5610,-0.0427,0.7834,-44.4580,89.9389,5.3130,45.15,0
36494,0.5608,-0.0786,0.8030,-36.9313,83.5878,6.3817,45.19,0
36504,0.5872,-0.1040,0.8215,-29.4504,80.0153,8.5344,45.17,0
36514,0.5903,-0.1113,0.8606,-24.9618,82.6107,10.5496,45.19,0
36524,0.5630,-0.1143,0.8848,-23.9542,87.5115,12.1985,45.20,0
36534,0.5295,-0.1172,0.9016,-27.0840,92.1985,13.7252,45.20,0
36544,0.4834,-0.1128,0.9006,-33.4809,96.8092,15.3282,45.18,0
36554,0.4443,-0.1147,0.8835,-37.9695,97.9695,15.7405,45.19,0
36564,0.4146,-0.1614,0.8657,-40.6412,95.4657,18.1374,45.21,0
36574,0.4175,-0.1794,0.8608,-41.3740,88.7634,23.4962,45.23,0
36584,0.4092,-0.1838,0.8650,-38.6107,85.0076,27.3130,45.25,0
36594,0.4067,-0.2068,0.8872,-33.1603,85.5573,26.5038,45.21,0
36604,0.4304,-0.1934,0.9065,-24.8550,87.7863,21.3588,45.21,0
36614,0.4326,-0.1160,0.9229,-14.7786,94.2137,14.8702,45.20,0
36624,0.3796,-0.0710,0.9553,-7.2519,106.2290,8.9008,45.19,0
36634,0.3030,-0.0627,0.9629,-9.0840,113.4198,4.4733,45.18,0
36644,0.2646,-0.1001,0.9468,-19.3130,113.6641,3.0534,45.19,0
36654,0.2412,-0.1653,0.9058,-32.8855,106.2290,7.1145,45.21,0
36664,0.2615,-0.2065,0.8667,-43.2977,97.9237,15.6183,45.18,0
36674,0.2581,-0.2390,0.8389,-46.1985,90.2137,23.8321,45.23,0
36684,0.2419,-0.2668,0.8438,-42.4275,87.9237,27.9847,45.18,0
36694,0.2317,-0.2646,0.8389,-33.5267,87.8779,26.0611,45.20,0
36704,0.2078,-0.2300,0.8623,-19.7863,93.1450,19.0229,45.21,0
36714,0.1812,-0.1790,0.8787,-7.6183,102.5496,10.5496,45.18,0
36724,0.1589,-0.1602,0.9087,0.5649,109.4198,-0.0763,45.18,0
36734,0.1479,-0.1497,0.9292,2.5496,116.7481,-8.0458,45.21,0
36744,0.1436,-0.1477,0.9319,-1.8168,115.4504,-10.5496,45.18,0
36754,0.1340,-0.1655,0.9207,-12.0153,113.7099,-4.0000,45.19,0
36764,0.1003,-0.1960,0.8889,-25.6489,105.2214,8.3206,45.19,0
36774,0.0652,-0.2046,0.8723,-37.5267,97.2977,21.3740,45.22,0
36784,0.0398,-0.2339,0.8477,-44.1832,91.4046,28.1069,45.21,0
36794,0.0193,-0.2354,0.8469,-42.8092,91.6489,24.4122,45.17,0
36804,0.0342,-0.2107,0.8489,-34.8397,95.4046,15.0534,45.19,0
36814,0.0281,-0.1875,0.8601,-24.6870,100.9466,5.7252,45.19,0
36824,0.0037,-0.2000,0.8918,-18.9618,105.7405,0.5954,45.21,0
36834,-0.0281,-0.2090,0.9036,-21.9237,106.3359,0.1832,45.22,0
36844,-0.0503,-0.2344,0.8857,-32.0916,102.4885,5.1145,45.22,0
36854,-0.0535,-0.2915,0.8701,-43.7710,94.6565,14.2137,45.21,0
36864,-0.0549,-0.3027,0.8318,-49.8321,89.4504,22.9771,45.19,0
36874,-0.0869,-0.3162,0.8245,-46.2443,92.1374,24.8855,45.20,0
36884,-0.1343,-0.3230,0.8086,-37.1908,96.9313,19.8473,45.20,0
36894,-0.1750,-0.3027,0.7996,-25.4962,100.0611,11.3435,45.22,0
36904,-0.1951,-0.2939,0.8132,-13.1908,98.2137,3.9084,45.20,0
36914,-0.1689,-0.2800,0.8203,-5.2977,98.5496,0.0458,45.20,0
36924,-0.1580,-0.2957,0.8618,-5.5267,101.7710,-0.8244,45.21,0
36934,-0.1755,-0.3311,0.8677,-10.9924,104.5191,-2.3359,45.19,0
36944,-0.1846,-0.3464,0.8333,-15.8015,101.9542,-3.1756,45.17,0
36954,-0.1736,-0.3274,0.8242,-14.8855,99.3740,0.4580,45.19,0
36964,-0.2068,-0.3140,0.8149,-10.7328,97.4962,4.8092,45.20,0
36974,-0.2527,-0.3037,0.8030,-6.1374,97.1603,6.0763,45.19,0
36984,-0.2712,-0.3210,0.8145,-2.8550,95.2824,2.9618,45.19,0
36994,-0.2573,-0.2939,0.8125,-0.7176,96.6107,-2.4580,45.21,0
37004,-0.2466,-0.2844,0.8286,-2.0916,100.9160,-5.7710,45.18,0
37014,-0.2478,-0.2749,0.8149,-8.4275,103.7405,-5.8321,45.19,0
37024,-0.2495,-0.2844,0.7888,-19.9695,103.0382,-1.1603,45.20,0
37034,-0.2910,-0.3347,0.7632,-28.8702,98.8092,6.1374,45.22,0
37044,-0.3054,-0.3320,0.7327,-31.3435,94.3359,11.4656,45.21,0
37054,-0.3179,-0.3384,0.7217,-27.4962,93.9847,13.3740,45.22,0
37064,-0.3357,-0.3484,0.7290,-21.5267,98.5038,11.1603,45.20,0
37074,-0.3525,-0.3374,0.7288,-17.4962,105.8473,6.0000,45.23,0
37084,-0.3689,-0.3408,0.7219,-18.4580,112.4885,0.7939,45.20,0
37094,-0.3862,-0.3318,0.6809,-24.1374,116.0153,-2.3053,45.24,0
37104,-0.4194,-0.3135,0.6321,-33.4504,116.1527,0.0305,45.23,0
37114,-0.4478,-0.3259,0.5952,-40.9160,110.7634,6.6870,45.22,0
37124,-0.4695,-0.3743,0.5913,-45.5115,102.3053,13.9084,45.21,0
37134,-0.4875,-0.4353,0.5674,-44.0458,93.7710,16.7176,45.22,0
37144,-0.4675,-0.4976,0.5574,-36.6718,92.1069,13.4809,45.21,0
37154,-0.4890,-0.5098,0.5200,-23.5267,96.5191,7.7557,45.19,0
37164,-0.5205,-0.5195,0.5027,-6.7786,102.2595,2.3206,45.19,0
37174,-0.5422,-0.4651,0.5269,6.9924,105.9542,-0.3359,45.21,0
37184,-0.5508,-0.4146,0.5098,11.8321,105.6641,2.7328,45.20,0
37194,-0.6033,-0.3904,0.5291,6.4580,102.7176,6.9008,45.18,0
37204,-0.6179,-0.3608,0.5271,-1.0534,93.7863,10.3206,45.22,0
37214,-0.6001,-0.3457,0.5208,-7.5878,84.4427,13.2672,45.22,0
37224,-0.5667,-0.3782,0.5229,-13.9695,79.1298,15.4962,45.17,0
37234,-0.5576,-0.4187,0.5168,-18.5496,80.6260,15.2061,45.18,0
37244,-0.5627,-0.4507,0.4983,-19.7863,86.5038,13.2214,45.19,0
37254,-0.5803,-0.4761,0.4695,-17.5420,90.5038,11.4504,45.22,0
37264,-0.6003,-0.4631,0.4575,-11.8015,92.6260,11.1908,45.20,0
37274,-0.6287,-0.4319,0.4355,-6.0916,91.9389,11.1298,45.22,0
37284,-0.6462,-0.4031,0.4329,-2.0763,88.7939,12.2290,45.18,0
37294,-0.6638,-0.3608,0.4348,-0.5344,84.3206,13.5267,45.19,0
37304,-0.6763,-0.3320,0.4297,-0.2595,81.7252,14.3511,45.24,0
37314,-0.6926,-0.3594,0.4087,-2.3206,79.9847,12.1374,45.20,0
37324,-0.6880,-0.3997,0.3953,-5.4962,79.9847,7.9084,45.20,0
37334,-0.6965,-0.4070,0.3452,-6.9924,81.7405,4.4122,45.19,0
37344,-0.7388,-0.4194,0.2878,-5.5420,80.9466,3.6947,45.21,0
37354,-0.7673,-0.4033,0.2563,-0.9771,75.2519,5.3130,45.20,0
37364,-0.7791,-0.3975,0.2300,4.4885,69.0992,6.1069,45.18,0
37374,-0.7922,-0.3757,0.2273,11.3435,63.8931,5.4504,45.22,0
37384,-0.8132,-0.3713,0.2104,17.3282,60.0458,3.4046,45.22,0
37394,-0.8118,-0.3894,0.2131,20.6870,58.3359,0.9313,45.20,0
37404,-0.8308,-0.4011,0.1904,20.7939,57.2672,-0.9924,45.22,0
37414,-0.8474,-0.3997,0.1628,17.9389,55.2519,-1.5573,45.17,0
37424,-0.8635,-0.3696,0.1580,13.5725,52.4427,0.0611,45.18,0
37434,-0.8650,-0.3552,0.1550,8.6870,49.9695,2.9771,45.20,0
37444,-0.8750,-0.3381,0.1628,3.1450,45.8473,5.3435,45.17,0
37454,-0.8845,-0.3596,0.1641,-0.8855,40.3053,5.3740,45.18,0
37464,-0.8887,-0.3611,0.1519,-1.5115,33.8321,4.1221,45.19,0
37474,-0.8772,-0.3848,0.1531,1.5573,27.1298,2.5496,45.23,0
37484,-0.8828,-0.4160,0.1599,4.9160,22.8702,1.0687,45.19,0
37494,-0.8779,-0.4150,0.1677,8.9771,19.4351,-0.7634,45.23,0
37504,-0.8782,-0.4226,0.1799,12.7939,17.2672,-2.8855,45.19,0
37514,-0.8591,-0.3916,0.2002,14.4885,13.0687,-2.9924,45.20,0
37524,-0.8262,-0.3823,0.2456,13.4351,6.9618,-1.5115,45.21,0
37534,-0.8049,-0.3777,0.2815,10.0763,2.6718,0.7176,45.18,0
37544,-0.7913,-0.3772,0.2864,6.0763,0.8855,2.7481,45.20,0
37554,-0.8008,-0.3911,0.2949,2.2901,0.5038,5.0076,45.19,0
37564,-0.7869,-0.4192,0.3025,0.8702,0.3969,6.5344,45.19,0
37574,-0.7815,-0.4065,0.3142,3.0992,2.0611,6.2595,45.21,0
37584,-0.7935,-0.4004,0.3250,6.7939,5.5115,5.0992,45.19,0
37594,-0.8091,-0.3750,0.3154,9.0382,5.5115,4.0458,45.21,0
37604,-0.8081,-0.3403,0.3179,9.1908,4.1221,4.3359,45.21,0
37614,-0.8142,-0.3269,0.3123,7.7710,2.3053,5.1756,45.22,0
37624,-0.8198,-0.3435,0.3230,3.9542,0.7634,5.9237,45.18,0
37634,-0.8428,-0.3638,0.3049,0.0458,-2.2290,5.7710,45.20,0
37644,-0.8184,-0.3628,0.3018,-1.9542,-3.8321,5.7252,45.19,0
37654,-0.7944,-0.3691,0.3154,-1.3435,-2.2290,4.9924,45.22,0
37664,-0.8049,-0.3557,0.3340,0.9466,1.4504,4.0305,45.22,0
37674,-0.8013,-0.3406,0.3279,1.8626,3.7405,2.6870,45.20,0
37684,-0.7998,-0.3455,0.3223,0.7634,3.9237,1.4046,45.22,0
37694,-0.8125,-0.3604,0.3025,-0.1374,2.5649,1.2061,45.19,0
37704,-0.8196,-0.3889,0.3062,-0.1069,-0.2290,1.7557,45.22,0
37714,-0.8193,-0.4041,0.2988,1.7557,-3.7863,2.3359,45.20,0
37724,-0.8218,-0.3906,0.2964,5.2061,-5.7099,2.8244,45.21,0
37734,-0.8137,-0.3770,0.3035,8.5344,-5.7557,2.5649,45.24,0
37744,-0.8022,-0.3489,0.3306,9.9237,-2.4885,0.3664,45.19,0
37754,-0.7935,-0.3394,0.3560,7.9084,1.9237,-2.6565,45.19,0
37764,-0.7949,-0.3308,0.3433,4.4275,4.6565,-3.8473,45.22,0
37774,-0.8062,-0.3279,0.3267,0.2443,4.5496,-3.0076,45.20,0
37784,-0.8181,-0.3521,0.3088,-4.0305,2.1985,-0.7786,45.20,0
37794,-0.8308,-0.3674,0.2795,-7.0992,-1.1908,1.4351,45.21,0
37804,-0.8452,-0.3811,0.2590,-7.1603,-5.3588,2.5802,45.22,0
37814,-0.8440,-0.3896,0.2444,-4.5954,-10.6260,2.4427,45.22,0
37824,-0.8242,-0.3982,0.2537,0.9771,-15.4962,0.8855,45.22,0
37834,-0.7932,-0.4006,0.2864,6.8702,-16.7634,-1.5573,45.20,0
37844,-0.7764,-0.3884,0.3108,12.2443,-14.1527,-5.2061,45.21,0
37854,-0.7744,-0.3958,0.3354,14.4580,-9.7710,-7.9084,45.20,0
37864,-0.7754,-0.3909,0.3489,13.3435,-7.7405,-8.4122,45.21,0
37874,-0.7827,-0.3811,0.3469,10.1832,-7.0382,-6.9771,45.19,0
37884,-0.7817,-0.3867,0.3357,5.7863,-9.4351,-3.3893,45.21,0
37894,-0.7778,-0.3884,0.3201,2.0000,-13.1908,0.6107,45.24,0
37904,-0.7898,-0.3730,0.3074,-0.1069,-15.1603,4.3359,45.20,0
37914,-0.7959,-0.3953,0.3123,-0.9771,-15.8779,5.8168,45.19,0
37924,-0.8140,-0.3999,0.3003,-0.8397,-17.7252,3.8015,45.19,0
37934,-0.8096,-0.4072,0.3074,-0.2748,-19.2977,1.7252,45.21,0
37944,-0.7798,-0.4243,0.3093,0.6870,-19.5725,0.8092,45.25,0
37954,-0.7869,-0.4163,0.3257,2.1832,-17.2061,0.5496,45.20,0
37964,-0.7966,-0.4185,0.3198,3.9084,-15.6794,1.5115,45.20,0
37974,-0.8066,-0.3892,0.3184,5.3893,-15.9389,2.8855,45.19,0
37984,-0.8286,-0.3435,0.3022,6.8855,-16.9008,3.3893,45.20,0
37994,-0.8435,-0.3157,0.2891,6.6565,-19.3435,3.3588,45.23,0
38004,-0.8457,-0.3105,0.2834,4.0153,-22.6412,3.1298,45.21,0
38014,-0.8464,-0.3511,0.2932,0.3817,-26.6107,2.2595,45.19,0
38024,-0.8306,-0.4055,0.3035,-1.1450,-31.2214,-0.0305,45.22,0
38034,-0.7915,-0.4441,0.3142,2.4427,-34.1832,-3.2977,45.21,0
38044,-0.7559,-0.4456,0.3289,10.0153,-32.7176,-6.5496,45.17,0
38054,-0.7422,-0.4441,0.3550,18.4580,-29.0687,-9.0534,45.20,0
38064,-0.7498,-0.4033,0.3684,25.4504,-26.6412,-9.9389,45.19,0
38074,-0.7571,-0.3569,0.3806,26.1527,-26.0916,-8.6260,45.19,0
38084,-0.7803,-0.3157,0.3682,19.7557,-28.2595,-4.9924,45.21,0
38094,-0.8052,-0.3081,0.3557,7.2061,-31.6947,1.7099,45.22,0
38104,-0.8276,-0.3418,0.3284,-7.1298,-37.0992,9.0076,45.19,0
38114,-0.8379,-0.3599,0.2974,-16.7176,-42.9618,12.8702,45.19,0
38124,-0.8271,-0.4058,0.2908,-16.9771,-48.2290,12.2748,45.19,0
38134,-0.7939,-0.4556,0.2844,-7.8931,-52.6107,7.4198,45.20,0
38144,-0.7432,-0.4573,0.3147,10.3053,-52.0000,-1.4962,45.26,0
38154,-0.7068,-0.4229,0.3628,29.2366,-46.5038,-10.9160,45.26,0
38164,-0.6936,-0.3813,0.4390,42.8397,-39.0382,-18.5344,45.26,0
38174,-0.7031,-0.3179,0.4795,45.2824,-33.6489,-20.5649,45.23,0
38184,-0.7183,-0.2581,0.4922,36.2443,-34.9924,-15.7252,45.25,0
38194,-0.7263,-0.2598,0.4822,19.9237,-41.2061,-5.9237,45.23,0
38204,-0.7419,-0.2847,0.4558,2.5344,-50.5496,4.8244,45.21,0
38214,-0.7537,-0.2949,0.4087,-8.1069,-58.0611,11.3893,45.22,0
38224,-0.7532,-0.3630,0.3965,-9.1603,-63.4351,11.2977,45.24,0
38234,-0.7183,-0.3872,0.3972,-2.0458,-65.7099,4.8855,45.22,0
38244,-0.6580,-0.4006,0.4456,9.6794,-61.2824,-6.2748,45.24,0
38254,-0.6279,-0.3972,0.5015,23.2977,-51.1450,-18.8092,45.21,0
38264,-0.6326,-0.3701,0.5396,33.5115,-41.5725,-27.3435,45.23,0
38274,-0.6340,-0.3547,0.5706,35.8473,-41.9237,-28.2901,45.24,0
38284,-0.6187,-0.3169,0.5842,30.4122,-50.1374,-20.0611,45.22,0
38294,-0.5913,-0.2803,0.5989,19.5725,-58.6107,-6.2748,45.23,0
38304,-0.5837,-0.2925,0.5991,2.8244,-61.5725,7.0076,45.22,0
38314,-0.6140,-0.3245,0.5605,-11.7710,-60.0000,14.6260,45.25,0
38324,-0.6587,-0.3420,0.5278,-18.3664,-55.9542,14.9160,45.21,0
38334,-0.6594,-0.3806,0.5273,-15.1145,-52.5496,7.3588,45.23,0
38344,-0.6306,-0.4290,0.5276,-4.2137,-52.6107,-4.8855,45.22,0
38354,-0.5789,-0.4392,0.5386,10.5191,-54.6870,-13.9542,45.21,0
38364,-0.5359,-0.4070,0.5781,25.6031,-55.9237,-16.3817,45.20,0
38374,-0.5193,-0.3752,0.6233,34.4733,-55.4809,-13.7099,45.22,0
38384,-0.5200,-0.3242,0.6694,31.0992,-53.2977,-5.8626,45.20,0
38394,-0.5439,-0.2742,0.6875,15.6031,-52.4733,4.1221,45.24,0
38404,-0.5750,-0.2708,0.6951,-8.6565,-51.4504,15.2061,45.24,0
38414,-0.6130,-0.3232,0.6450,-34.6718,-54.1221,24.2595,45.22,0
38424,-0.6345,-0.3970,0.5754,-51.8015,-59.0382,27.6489,45.24,0
38434,-0.6230,-0.4895,0.5256,-50.2137,-64.5649,23.7710,45.22,0
38444,-0.5850,-0.5256,0.5010,-30.2595,-68.2443,12.8855,45.21,0
38454,-0.5352,-0.5271,0.5203,1.0992,-67.5115,-0.1069,45.24,0
38464,-0.4924,-0.5024,0.5950,35.0076,-60.5344,-13.4656,45.24,0
38474,-0.4780,-0.4275,0.6672,55.4656,-51.5420,-22.3817,45.20,0
38484,-0.4863,-0.3589,0.7266,62.6565,-44.3664,-26.3664,45.22,0
38494,-0.4753,-0.2854,0.7651,56.3359,-40.0458,-24.2595,45.24,0
38504,-0.4907,-0.2483,0.7729,38.5954,-39.9695,-16.4886,45.23,0
38514,-0.5137,-0.2510,0.7290,14.3359,-47.1145,-4.2595,45.18,0
38524,-0.5117,-0.2717,0.6970,-10.1832,-57.6794,9.6336,45.21,0
38534,-0.4773,-0.3782,0.6731,-28.0305,-70.1221,19.4809,45.20,0
38544,-0.4270,-0.4443,0.6704,-29.9847,-73.8473,18.6412,45.21,0
38554,-0.3828,-0.4893,0.6863,-17.4046,-68.4427,9.1908,45.19,0
38564,-0.3604,-0.5159,0.7063,5.9237,-56.3664,-5.4198,45.22,0
38574,-0.3511,-0.4817,0.7456,32.1069,-40.5496,-19.7252,45.22,0
38584,-0.3889,-0.4377,0.7886,51.5267,-27.9084,-30.4886,45.21,0
38594,-0.3979,-0.3889,0.8066,58.5344,-29.1756,-32.3817,45.21,0
38604,-0.3469,-0.3206,0.8125,53.6489,-37.4809,-21.3130,45.21,0
38614,-0.3386,-0.2632,0.8250,38.1527,-43.4198,-1.3740,45.20,0
38624,-0.3987,-0.2900,0.8042,18.1221,-44.7023,13.1298,45.19,0
38634,-0.4451,-0.3081,0.7583,0.4427,-46.2748,18.4733,45.22,0
38644,-0.4382,-0.3071,0.7278,-6.5496,-46.4275,15.6947,45.22,0
38654,-0.4221,-0.3447,0.7112,-4.1374,-42.7939,7.5420,45.21,0
38664,-0.4109,-0.3596,0.7278,4.4733,-38.6107,-1.3435,45.21,0
38674,-0.4312,-0.3540,0.7317,16.2748,-39.4962,-7.2977,45.20,0
38684,-0.3860,-0.3469,0.7703,26.1374,-48.3664,-6.9924,45.24,0
38694,-0.3391,-0.3130,0.8135,30.7328,-53.2061,-1.4809,45.21,0
38704,-0.3406,-0.2966,0.8477,27.6031,-50.1985,1.8473,45.22,0
38714,-0.3574,-0.2969,0.8457,19.4656,-44.3969,2.1527,45.24,0
38724,-0.3784,-0.2966,0.8201,9.9695,-39.6336,0.5191,45.21,0
38734,-0.3909,-0.3145,0.7886,2.9160,-36.9313,-2.2443,45.23,0
38744,-0.3779,-0.3411,0.7759,2.0458,-40.1069,-4.1527,45.21,0
38754,-0.3530,-0.3596,0.7629,7.4046,-47.6641,-2.7786,45.24,0
38764,-0.3179,-0.3569,0.7866,16.5191,-53.4809,0.2748,45.22,0
38774,-0.3062,-0.3501,0.8264,26.3817,-53.8626,0.3969,45.23,0
38784,-0.2917,-0.3198,0.8484,31.4656,-48.1985,-4.3359,45.22,0
38794,-0.3035,-0.2820,0.8875,31.3282,-40.0000,-11.5725,45.19,0
38804,-0.2932,-0.2798,0.8687,27.3588,-33.4046,-16.7023,45.20,0
38814,-0.2715,-0.2739,0.8723,22.4122,-27.6947,-17.7863,45.22,0
38824,-0.3118,-0.2642,0.8440,19.2214,-25.6947,-16.1527,45.22,0
38834,-0.3342,-0.2913,0.8230,16.5496,-35.5725,-11.0687,45.22,0
38844,-0.2920,-0.3010,0.8184,13.2366,-49.7405,-1.3282,45.22,0
38854,-0.2417,-0.3450,0.8503,12.5496,-58.9924,5.0076,45.20,0
38864,-0.1973,-0.3687,0.8770,18.1374,-56.3511,1.7405,45.24,0
38874,-0.1719,-0.3628,0.9180,28.3969,-47.4504,-6.3817,45.24,0
38884,-0.1638,-0.3342,0.9446,37.8015,-37.0534,-14.4122,45.24,0
38894,-0.1750,-0.2991,0.9529,42.2595,-25.9237,-19.7099,45.22,0
38904,-0.2104,-0.2590,0.9485,40.7939,-15.3893,-22.0763,45.20,0
38914,-0.2705,-0.2266,0.9102,34.0763,-11.5573,-22.3511,45.22,0
38924,-0.3015,-0.2136,0.8752,23.1908,-22.2443,-14.7634,45.22,0
38934,-0.2766,-0.2029,0.8459,7.6794,-40.6565,2.4427,45.22,0
38944,-0.2498,-0.2363,0.8303,-6.0000,-55.2672,17.1450,45.22,0
